id,trial,llTop,delay,ssA,llA,llRight,response,rt
1,1,1,1,28.9,51.6,0,-1,-1
1,2,0,4,25.4,57.1,0,-1,-1
1,3,0,6,24,67.8,1,-1,-1
1,4,1,2,27.8,45.9,1,-1,-1
1,5,1,1,25.3,45.2,1,-1,-1
1,6,0,1,20.8,27.8,0,1,1049
1,7,0,2,29.4,44.2,1,1,1067
1,8,1,9,24.2,121.1,1,1,976
1,9,1,4,28.5,50.7,1,-1,-1
1,10,0,1,28.5,34.2,1,-1,-1
1,11,1,4,29.2,51.9,0,-1,-1
1,12,1,4,28.8,51.2,1,1,922
1,13,0,6,20.2,39.9,1,1,1103
1,14,0,1,25.1,26.3,1,-1,-1
1,15,0,6,23.1,43.1,1,-1,-1
1,16,0,9,20.4,46.7,0,-1,-1
1,17,1,1,22.4,25.7,1,-1,-1
1,18,0,9,20.5,39.4,0,-1,-1
1,19,1,12,27.8,75.3,0,-1,-1
1,20,0,9,22,50.3,0,-1,-1
1,21,0,2,22.8,29.5,0,-1,-1
1,22,1,1,29.4,30.8,0,-1,-1
1,23,0,2,28.3,41,0,-1,-1
1,24,0,12,29.7,103.7,1,-1,-1
1,25,1,2,23.5,34.1,0,-1,-1
1,26,0,6,27,50.3,0,-1,-1
1,27,0,4,28.9,45.7,0,-1,-1
1,28,0,12,27.9,75.6,0,-1,-1
1,29,0,6,29.5,55,0,-1,-1
1,30,1,12,29.5,65.3,1,-1,-1
1,31,0,2,26.2,33.9,1,-1,-1
1,32,0,6,27.5,51.3,0,-1,-1
1,33,0,4,28.3,44.7,0,-1,-1
1,34,0,6,23,50.7,1,1,723
1,35,1,6,22.5,41.2,1,-1,-1
1,36,0,2,27,34.6,1,-1,-1
1,37,1,9,24.9,55.8,1,1,652
1,38,0,1,28.4,30.2,1,-1,-1
1,39,1,9,22.3,52.8,0,-1,-1
1,40,0,1,24.8,27.9,0,0,1248
1,41,1,12,20.6,53.2,1,-1,-1
1,42,1,2,22.6,28.7,1,0,1321
1,43,1,9,21.1,40.3,0,1,1484
1,44,0,12,22.8,61.9,1,1,1809
1,45,1,4,22.4,49,1,-1,-1
1,46,1,6,20.4,56.2,1,1,868
1,47,1,1,24.5,24,1,-1,-1
1,48,1,9,26.7,81.6,1,1,887
1,49,0,6,24.3,51.6,0,-1,-1
1,50,1,1,29.4,37.5,1,-1,-1
1,51,0,9,20.4,43,0,-1,-1
1,52,0,9,26.3,55.4,1,-1,-1
1,53,1,12,22.8,44.9,0,-1,-1
1,54,1,9,26,45,1,-1,-1
1,55,0,9,22.9,61.7,0,1,1700
1,56,1,9,24.5,61.1,0,-1,-1
1,57,0,9,23,41.1,0,-1,-1
1,58,0,2,28.5,39.3,0,0,1899
1,59,1,1,25.6,29.1,0,-1,-1
1,60,0,1,22.8,25.9,0,-1,-1
1,61,1,1,21.1,29.6,0,-1,-1
1,62,0,4,24.7,50.6,1,1,1501
1,63,0,2,22.3,28,1,-1,-1
1,64,1,4,24.6,31,0,0,1501
1,65,1,4,25.5,32.9,0,-1,-1
1,66,0,9,20.5,57.3,0,-1,-1
1,67,1,2,28.9,36.3,1,-1,-1
1,68,0,9,23.1,64.6,0,-1,-1
1,69,0,9,27.3,76.3,1,-1,-1
1,70,1,1,20.4,26.3,1,-1,-1
1,71,0,4,27.3,35.2,0,-1,-1
1,72,1,6,29.5,51.8,0,-1,-1
1,73,0,9,29.6,82.7,1,-1,-1
1,74,0,12,20.4,70.8,0,-1,-1
1,75,0,1,28.3,28.4,0,-1,-1
1,76,0,12,20.4,51,1,0,1556
1,77,0,4,23.1,30,1,-1,-1
1,78,1,6,20.6,37,1,-1,-1
1,79,1,9,26.7,58.4,1,-1,-1
1,80,1,12,27.9,102.9,0,-1,-1
1,1,1,4,24.5,55.1,1,1,850
1,2,0,6,20.1,48.1,0,1,1573
1,3,1,9,24.1,66,0,1,958
1,4,1,6,23.6,36.6,0,-1,-1
1,5,1,12,28.3,84.9,1,1,1392
1,6,1,1,30,34.8,1,-1,-1
1,7,0,6,20.7,39.5,1,-1,-1
1,8,1,9,27,63.4,1,-1,-1
1,9,0,9,25.9,85.1,0,-1,-1
1,10,1,12,27.6,57.4,1,-1,-1
1,11,1,9,23.5,55.2,0,-1,-1
1,12,1,9,20.8,48.8,1,-1,-1
1,13,1,2,26.5,34.8,1,0,1374
1,14,0,9,27,129.9,1,1,1374
1,15,1,6,22.7,45.7,1,-1,-1
1,16,0,9,25.4,48.5,1,-1,-1
1,17,0,9,28,70.2,0,-1,-1
1,18,0,4,20.8,44.2,1,-1,-1
1,19,1,12,23.7,51.7,0,0,1591
1,20,1,1,22.1,23.4,1,0,922
1,21,1,6,22,43.8,1,-1,-1
1,22,1,12,24.7,73.4,0,-1,-1
1,23,1,4,25.6,38.4,0,1,1229
1,24,1,2,25.2,42.9,0,-1,-1
1,25,0,6,26.2,51,1,-1,-1
1,26,1,4,29.7,38.3,0,-1,-1
1,27,1,9,23.6,56.7,0,-1,-1
1,28,1,1,27.8,32.4,0,-1,-1
1,29,0,9,22.9,55,1,-1,-1
1,30,0,2,26.3,34.9,1,-1,-1
1,31,0,4,20.7,33.9,1,-1,-1
1,32,1,1,29.4,42.5,1,1,1212
1,33,0,12,28.5,59.1,1,0,1321
1,34,0,2,29.4,38.3,0,-1,-1
1,35,1,9,20.6,61.9,0,1,1013
1,36,1,4,23.7,37.3,0,-1,-1
1,37,1,9,22.2,60.2,1,-1,-1
1,38,1,12,26.4,71.2,1,-1,-1
1,39,0,6,20.5,43.8,0,-1,-1
1,40,0,4,27.6,43.4,1,-1,-1
1,41,1,2,27.5,35.5,1,-1,-1
1,42,1,4,25.2,35.7,0,-1,-1
1,43,0,1,27.5,34.3,0,-1,-1
1,44,0,1,26.9,30.8,0,0,1339
1,45,1,2,30,43.7,0,0,1356
1,46,1,6,26,87.9,1,-1,-1
1,47,0,12,21.9,42.9,1,-1,-1
1,48,1,2,22.6,24.6,0,-1,-1
1,49,0,2,22,40.5,1,1,1212
1,50,1,2,25.3,34.1,0,-1,-1
1,51,0,12,20.5,111.3,0,-1,-1
1,52,1,9,23,57.9,0,-1,-1
1,53,1,12,22,45.9,0,0,669
1,54,0,2,27.8,37.5,0,-1,-1
1,55,0,2,24.8,33.4,0,-1,-1
1,56,0,6,23.4,63.1,0,-1,-1
1,57,0,6,20.9,33.8,0,-1,-1
1,58,0,4,22.7,31.7,1,0,1031
1,59,1,4,21.4,30.7,0,0,759
1,60,0,6,28.9,59,1,1,940
1,61,1,12,21.4,62.7,0,-1,-1
1,62,1,6,28.8,56.8,1,-1,-1
1,63,1,4,27.4,39.9,1,1,832
1,64,1,2,25.8,33.9,0,-1,-1
1,65,0,9,25.8,61.5,0,-1,-1
1,66,0,9,29.4,98.3,1,-1,-1
1,67,0,4,23.4,31.7,1,-1,-1
1,68,0,6,27.4,42.8,1,0,796
1,69,0,4,21.4,41.9,1,1,868
1,70,1,1,29.5,34,1,-1,-1
1,71,1,6,29.2,66.4,0,-1,-1
1,72,0,9,29.6,69.3,0,1,904
1,73,0,2,27.8,35.8,1,0,1556
1,74,0,6,29.8,56.3,1,-1,-1
1,75,0,9,26.8,62.4,0,1,1248
1,76,1,1,24.6,28.1,0,0,1266
1,77,0,2,22,32,0,-1,-1
1,78,0,2,21.5,31.3,1,0,1753
1,79,0,9,22.5,54.4,1,-1,-1
1,80,0,9,23.3,56.3,1,1,1013
2,1,1,4,24,53.9,1,-1,-1
2,2,0,4,23.3,90.7,0,-1,-1
2,3,0,2,25.7,32.4,0,-1,-1
2,4,0,2,20.9,34.5,1,-1,-1
2,5,0,12,27.2,123.2,0,-1,-1
2,6,0,9,28.9,106.4,0,1,795
2,7,1,12,22.2,47.8,0,-1,-1
2,8,1,6,22.1,36.1,1,0,887
2,9,0,2,23,34.3,1,-1,-1
2,10,1,4,22.7,62.7,1,-1,-1
2,11,1,6,28.6,68.9,1,-1,-1
2,12,0,6,23.9,42.4,0,-1,-1
2,13,1,4,23.9,66,1,-1,-1
2,14,1,2,23.7,45.5,1,1,868
2,15,1,1,29.6,36.5,1,0,1230
2,16,0,6,20.7,79.8,1,1,831
2,17,0,2,22.4,34.3,0,-1,-1
2,18,1,2,20.2,27.3,1,-1,-1
2,19,1,6,28.8,73.7,1,-1,-1
2,20,0,4,25.5,63.7,1,1,1122
2,21,1,12,21.6,86.5,0,-1,-1
2,22,1,1,24.3,28.4,0,-1,-1
2,23,1,4,25.1,50.6,1,0,633
2,24,0,4,24.3,58.5,0,-1,-1
2,25,0,6,20,63,1,0,778
2,26,0,9,29.7,67.4,0,-1,-1
2,27,0,12,29.8,138.6,0,-1,-1
2,28,0,4,24.5,90.2,0,-1,-1
2,29,0,1,25.9,34.2,1,-1,-1
2,30,1,9,20.3,76.1,0,-1,-1
2,31,0,4,26.3,59,1,1,832
2,32,1,9,28.5,100.7,1,-1,-1
2,33,1,4,28.5,61.1,0,0,470
2,34,0,2,29.6,48.1,0,-1,-1
2,35,0,4,22.5,35.6,0,0,995
2,36,0,6,29,59,0,-1,-1
2,37,1,12,28.7,134.7,0,-1,-1
2,38,0,12,26.3,74,0,-1,-1
2,39,1,9,23,87,0,-1,-1
2,40,0,12,24.5,115,0,-1,-1
2,41,1,2,26.9,35.6,0,-1,-1
2,42,1,9,29.4,111.2,1,1,868
2,43,0,9,29.8,108.7,1,-1,-1
2,44,1,2,22.4,35.9,1,1,1591
2,45,0,1,26.3,29.2,1,-1,-1
2,46,1,4,23.2,39.2,0,-1,-1
2,47,1,4,23.4,39.5,0,-1,-1
2,48,0,1,24.9,32.1,1,-1,-1
2,49,0,2,27.8,54.2,0,-1,-1
2,50,0,6,20.4,41.2,0,-1,-1
2,51,0,12,24.2,227.5,1,-1,-1
2,52,1,2,21.9,34.4,0,-1,-1
2,53,1,1,23.6,26.2,0,0,778
2,54,0,9,29,154.7,1,1,1591
2,55,0,4,29.7,74.6,1,-1,-1
2,56,0,6,24.4,65.6,0,-1,-1
2,57,0,12,28,177.6,0,-1,-1
2,58,1,4,27.7,59,1,-1,-1
2,59,0,1,21.8,28,1,0,850
2,60,0,2,20.2,32,0,-1,-1
2,61,0,1,26.3,31,0,-1,-1
2,62,0,6,23.7,64.9,1,-1,-1
2,63,1,6,20.2,55.3,0,-1,-1
2,64,1,9,26.9,132.7,0,1,832
2,65,1,9,25.8,116.5,1,-1,-1
2,66,0,2,22.2,35,1,-1,-1
2,67,1,6,28,90.5,0,-1,-1
2,68,0,2,21.2,33.4,0,0,1157
2,69,1,6,24.8,83.7,1,-1,-1
2,70,0,6,24.1,67.1,1,-1,-1
2,71,1,2,23.4,34,0,0,1410
2,72,0,1,24.3,29.7,0,-1,-1
2,73,0,9,30,111.1,1,1,633
2,74,1,1,29,37.5,1,-1,-1
2,75,0,6,22.6,55.2,0,-1,-1
2,76,0,9,29.5,107,0,-1,-1
2,77,0,6,23.3,56.9,0,-1,-1
2,78,0,12,20.3,91.3,0,1,1175
2,79,1,6,24.4,74.9,1,1,904
2,80,0,2,20.9,32.8,1,-1,-1
2,1,1,6,21.9,61.9,0,-1,-1
2,2,1,6,20.3,37.5,0,-1,-1
2,3,1,2,24.1,57.7,0,-1,-1
2,4,0,12,23.9,732.8,0,-1,-1
2,5,1,2,24.8,59.3,0,-1,-1
2,6,1,6,26.4,48.7,0,-1,-1
2,7,1,6,22.1,133.5,1,-1,-1
2,8,1,12,28.9,130.9,0,-1,-1
2,9,0,12,24.2,59.2,0,1,759
2,10,0,6,23.6,-657.5,0,-1,-1
2,11,0,9,22.1,29.3,1,0,615
2,12,0,2,27.2,41.6,0,0,669
2,13,0,2,20.2,19.6,1,-1,-1
2,14,0,12,28.4,-131.8,0,-1,-1
2,15,1,6,25.6,73.9,1,-1,-1
2,16,1,12,27.5,42.6,1,-1,-1
2,17,0,4,23.8,54.5,1,0,1881
2,18,1,4,26.3,-2034,1,-1,-1
2,19,0,1,27.8,38.8,1,1,850
2,20,0,4,26.1,-1556.2,1,-1,-1
2,21,0,4,24.1,-1436.9,1,-1,-1
2,22,0,9,20.6,29.1,1,-1,-1
2,23,0,1,27.9,37.7,0,0,832
2,24,1,4,23.9,57.6,0,-1,-1
2,25,0,2,23.6,23.2,1,-1,-1
2,26,1,1,26.3,36.2,0,-1,-1
2,27,1,12,24.7,38.7,0,-1,-1
2,28,1,2,22.9,39.6,0,-1,-1
2,29,0,1,22.2,19,1,0,995
2,30,1,2,27.3,47.6,0,1,922
2,31,1,2,26.7,44.9,1,-1,-1
2,32,0,1,25.6,22.8,0,-1,-1
2,33,0,2,20.8,35,0,-1,-1
2,34,0,2,27.1,45.6,0,-1,-1
2,35,0,6,30,-695.4,1,0,814
2,36,1,9,24.5,100,0,-1,-1
2,37,0,1,24.8,34.3,1,0,778
2,38,1,9,26.8,113.6,0,-1,-1
2,39,0,4,20.1,50.2,0,-1,-1
2,40,1,9,28.8,122.1,0,-1,-1
2,41,0,4,23.2,57.9,1,-1,-1
2,42,0,2,25.2,44.8,1,-1,-1
2,43,1,1,25.4,35.6,1,-1,-1
2,44,0,6,26.4,84.5,0,-1,-1
2,45,0,2,23.7,-474.8,1,0,723
2,46,0,6,23.5,77,0,-1,-1
2,47,0,2,26.8,20.3,0,-1,-1
2,48,1,1,23.1,32.7,0,-1,-1
2,49,0,12,21,22.1,0,-1,-1
2,50,1,9,26.7,-49.9,0,-1,-1
2,51,0,9,20.8,-38.9,0,-1,-1
2,52,1,4,28.3,72.2,0,-1,-1
2,53,0,6,28.7,-62.5,0,-1,-1
2,54,1,4,20.7,52.8,1,-1,-1
2,55,1,9,26.4,-49.4,1,0,1193
2,56,0,6,29.6,25.1,1,0,705
2,57,0,1,21.2,30.3,1,-1,-1
2,58,1,2,24,43.9,0,-1,-1
2,59,1,4,25,65,1,1,1663
2,60,0,1,27.5,38.9,0,-1,-1
2,61,0,12,23.2,124.9,1,-1,-1
2,62,1,2,29.5,20.9,1,-1,-1
2,63,0,6,29.9,97.5,0,1,778
2,64,0,12,21,109.8,0,-1,-1
2,65,1,6,28.5,-52.2,1,-1,-1
2,66,1,1,20.3,28.4,1,-1,-1
2,67,1,9,22.5,20.5,1,-1,-1
2,68,1,2,25.4,17.8,1,-1,-1
2,69,0,2,25.4,17.8,1,0,579
2,70,1,1,28.9,18.7,1,-1,-1
2,71,0,12,21.2,112.8,1,1,723
2,72,0,9,21.5,20,0,-1,-1
2,73,0,2,24.5,17.5,1,0,688
2,74,0,12,25.1,25.2,1,0,795
2,75,0,4,23,58.3,0,-1,-1
2,76,1,6,24,78,0,-1,-1
2,77,0,12,27.1,145.5,0,-1,-1
2,78,1,1,23.2,-322.3,1,-1,-1
2,79,0,9,28.2,-51.4,1,-1,-1
2,80,0,12,22.4,-37.7,0,-1,-1
3,1,1,4,26.5,25.5,0,-1,-1
3,2,0,12,28,58.5,0,-1,-1
3,3,1,12,27,40.5,0,-1,-1
3,4,0,2,21,22.9,1,-1,-1
3,5,0,2,27.9,38.2,0,-1,-1
3,6,0,2,24.2,21.9,1,-1,-1
3,7,0,2,23.4,32,1,0,796
3,8,1,2,22,53.1,1,-1,-1
3,9,1,6,28.3,98.8,1,-1,-1
3,10,0,12,25.3,38.6,1,-1,-1
3,11,1,6,23.1,80.7,1,-1,-1
3,12,1,2,29.4,32.2,0,-1,-1
3,13,1,2,25.5,61.6,0,-1,-1
3,14,1,9,24.5,20.2,0,0,1429
3,15,0,6,26.3,21.5,0,-1,-1
3,16,1,2,23.1,48.9,0,-1,-1
3,17,0,9,27.7,39,0,1,887
3,18,0,2,21.1,22.9,1,-1,-1
3,19,1,9,24.8,21.1,1,0,1285
3,20,1,1,23.1,17.2,0,-1,-1
3,21,0,12,20.9,30.8,0,-1,-1
3,22,1,6,25.3,21.3,1,-1,-1
3,23,1,12,24.8,36.5,0,-1,-1
3,24,1,6,26.4,62.8,1,-1,-1
3,25,1,4,29.4,61.9,1,-1,-1
3,26,1,6,21.3,17.9,1,-1,-1
3,27,0,4,21.2,17.1,1,-1,-1
3,28,1,9,29.2,82.9,0,-1,-1
3,29,1,12,27.3,40.2,0,-1,-1
3,30,1,4,24,28,1,-1,-1
3,31,1,1,23.4,24.4,1,-1,-1
3,32,1,9,20.3,18.1,0,-1,-1
3,33,1,4,29.2,34,0,0,1627
3,34,1,2,26.5,29,1,0,1682
3,35,1,9,28.2,39.9,1,-1,-1
3,36,0,1,24.5,46.9,0,-1,-1
3,37,0,1,25.2,26.4,0,-1,-1
3,38,0,4,20.9,24.9,0,-1,-1
3,39,0,6,20.6,17,0,-1,-1
3,40,1,9,29.5,107.2,0,-1,-1
3,41,1,2,21.7,45.2,1,-1,-1
3,42,0,4,28.6,34.1,1,-1,-1
3,43,0,4,29.9,73.2,0,-1,-1
3,44,1,4,24.7,19.4,0,-1,-1
3,45,0,6,26.4,75.7,0,0,1501
3,46,1,2,24.4,15.9,1,-1,-1
3,47,1,6,21.1,15.1,0,-1,-1
3,48,1,4,28.2,140.6,0,1,723
3,49,1,6,28.6,37.1,1,-1,-1
3,50,1,1,23.2,24.4,1,-1,-1
3,51,1,4,25.4,30.5,1,0,1411
3,52,0,1,20.7,56.7,1,-1,-1
3,53,1,9,25.2,36.8,0,-1,-1
3,54,0,2,25.2,78.9,0,-1,-1
3,55,0,1,22.1,14.4,1,-1,-1
3,56,0,12,20.1,497,1,-1,-1
3,57,1,9,27.6,271,0,-1,-1
3,58,1,2,22.1,69.2,0,-1,-1
3,59,0,12,22.7,36.4,1,-1,-1
3,60,1,12,27.6,682.4,1,-1,-1
3,61,0,6,25.1,32.9,0,-1,-1
3,62,1,2,23.6,15.9,0,-1,-1
3,63,0,12,29.9,47.9,0,-1,-1
3,64,1,2,20.1,62.9,0,1,1483
3,65,1,1,20.3,13.6,1,-1,-1
3,66,1,1,20.4,13.7,1,0,1809
3,67,0,2,22.7,56.1,0,-1,-1
3,68,1,2,23,25.5,1,0,1212
3,69,0,2,28.9,32.2,0,-1,-1
3,70,1,4,20.2,24.7,1,-1,-1
3,71,1,4,28.6,87.7,1,-1,-1
3,72,1,2,24.6,27.4,1,-1,-1
3,73,0,4,28.2,34.5,0,0,1646
3,74,1,2,20.6,23.1,0,-1,-1
3,75,0,2,22.1,16.1,1,-1,-1
3,76,0,6,21.2,28.7,1,-1,-1
3,77,1,1,26.7,18.8,1,0,1176
3,78,0,6,26.1,87.6,0,-1,-1
3,79,1,12,21.2,36,0,-1,-1
3,80,1,6,22.7,30.9,0,-1,-1
3,1,0,1,21.9,19.1,1,0,1700
3,2,1,2,24.6,31.5,1,-1,-1
3,3,0,12,21.5,32.3,1,-1,-1
3,4,1,9,23.4,39.9,1,-1,-1
3,5,1,9,21.1,29.1,1,-1,-1
3,6,1,2,26.5,33.9,0,-1,-1
3,7,0,6,27.5,41.8,1,-1,-1
3,8,0,6,27.3,29.3,1,0,976
3,9,0,1,25.9,27.1,0,-1,-1
3,10,0,4,24.2,25.6,1,-1,-1
3,11,0,1,21.9,20.8,0,-1,-1
3,12,0,4,29.2,39,1,0,542
3,13,1,9,26.9,42.2,0,-1,-1
3,14,1,9,23.6,37,0,-1,-1
3,15,1,6,26,27.8,0,-1,-1
3,16,0,4,29.5,37.3,1,-1,-1
3,17,0,4,25.3,32,0,-1,-1
3,18,0,6,26.2,36.4,1,-1,-1
3,19,1,1,25.2,21.9,0,0,1319
3,20,1,6,25.5,29.2,1,0,1428
3,21,0,12,23.9,36.3,0,0,1302
3,22,1,9,28,48.7,1,0,994
3,23,0,9,20.7,34.2,0,-1,-1
3,24,1,9,28.7,53,0,-1,-1
3,25,0,12,23.1,49.1,0,-1,-1
3,26,1,4,28.6,39.5,0,-1,-1
3,27,1,12,21.3,52.2,1,-1,-1
3,28,0,4,20.6,26.2,0,-1,-1
3,29,0,1,23.4,24,0,0,1193
3,30,1,2,23.1,29.1,1,-1,-1
3,31,0,4,27.5,36.1,1,0,1338
4,1,0,12,27.9,58.2,1,-1,-1
4,2,1,12,20.7,43.2,0,-1,-1
4,3,0,1,29.4,30.7,0,-1,-1
4,4,0,9,25.1,27.5,1,-1,-1
4,5,1,6,29.3,29.8,1,-1,-1
4,6,1,12,21.7,32.5,1,-1,-1
4,7,0,9,23.2,32,1,-1,-1
4,8,1,9,20.7,38.6,0,-1,-1
4,9,1,4,29.6,34.8,1,-1,-1
4,10,0,6,24.8,40.9,0,-1,-1
4,11,0,6,21,21.4,1,-1,-1
4,12,1,4,23.8,28,0,-1,-1
4,13,0,12,28.2,42.3,0,1,1139
4,14,1,4,20.7,23.4,0,-1,-1
4,15,0,4,24.5,23,0,-1,-1
4,16,1,12,27.9,51.4,0,-1,-1
4,17,0,2,27.9,29.7,0,-1,-1
4,18,1,12,23.3,25.7,0,-1,-1
4,19,1,12,29.6,40.8,1,-1,-1
4,20,0,2,26.4,23.6,0,-1,-1
4,21,0,9,20.9,21.8,1,-1,-1
4,22,1,6,20.4,20,1,-1,-1
4,23,0,4,27.4,31,0,0,1193
4,24,0,2,20.3,21.9,1,0,940
4,25,0,12,27.5,40.8,0,-1,-1
4,26,0,1,25.4,26.5,1,0,1753
4,27,1,4,26.2,23.4,1,0,1483
4,28,1,12,23.8,27.3,0,-1,-1
4,29,1,1,27.3,23.4,1,-1,-1
4,30,1,6,25.4,32.1,1,-1,-1
4,31,1,2,28,39.7,0,-1,-1
4,32,0,12,29.2,33.5,0,0,976
4,33,0,12,29.1,44.5,0,-1,-1
4,34,1,9,26.3,36.8,1,-1,-1
4,35,0,9,24.3,44.2,0,-1,-1
4,36,0,4,29.2,28.9,1,-1,-1
4,37,1,6,29.1,37,1,-1,-1
4,38,1,6,26.6,33.8,0,-1,-1
4,39,1,6,25.4,26.7,0,-1,-1
4,40,0,12,29.7,45.4,0,-1,-1
4,41,1,9,24.9,34.9,1,-1,-1
4,42,0,12,23.2,28.4,0,0,1049
4,43,0,6,21,26.9,1,-1,-1
4,44,0,1,26.3,31.7,1,-1,-1
4,45,0,2,28.9,36.7,1,-1,-1
4,46,1,1,20.6,21.6,1,0,1212
4,47,0,1,25.7,23.7,1,0,1157
4,48,1,2,22.9,25.3,1,-1,-1
4,49,0,9,29.9,43.7,0,-1,-1
4,50,0,6,25.2,38.2,1,-1,-1
4,51,1,1,23.7,25,1,-1,-1
4,52,0,2,29.2,32.3,0,-1,-1
4,53,1,4,26.3,36.3,0,-1,-1
4,54,0,4,20.3,24.6,1,-1,-1
4,55,0,1,21.5,20.4,0,-1,-1
4,56,0,2,20.1,25.1,1,0,1230
4,57,1,4,22.9,21.7,0,0,1140
4,58,0,2,20.7,18.9,1,0,904
4,59,0,4,26.7,33.3,1,-1,-1
4,60,1,2,20.4,19.3,1,-1,-1
4,61,0,9,24.2,29.7,0,0,1157
4,62,0,2,25.8,34.7,1,-1,-1
4,63,1,9,21,33.1,0,-1,-1
4,64,0,2,28.2,32,1,0,688
4,65,1,4,27.2,35.5,1,-1,-1
4,66,1,2,24.5,28.3,0,0,1319
4,67,0,1,27.8,26.9,1,-1,-1
4,68,1,6,27.8,51.3,0,-1,-1
4,69,1,6,24.2,36.8,1,1,1826
4,70,0,6,21.8,39.4,1,0,1791
4,71,1,6,22,31.7,1,0,1103
4,72,0,1,28.1,30.4,1,-1,-1
4,73,0,2,26.5,42.5,1,-1,-1
4,74,1,2,23.1,26.9,1,-1,-1
4,75,0,6,25.4,37.7,1,-1,-1
4,76,0,12,27.1,52.7,1,-1,-1
4,77,1,6,25.4,28,0,-1,-1
4,78,1,1,25.1,36.4,1,-1,-1
4,79,0,6,29.6,43.9,0,-1,-1
4,80,0,9,20.6,35.4,0,-1,-1
4,1,0,6,21.5,27,1,-1,-1
4,2,0,1,23.9,25,0,-1,-1
4,3,1,1,26.2,34.1,1,-1,-1
4,4,0,1,22.1,19.3,1,-1,-1
4,5,1,6,24.5,30.8,0,-1,-1
4,6,0,12,23.5,49.1,0,-1,-1
4,7,1,1,20.3,21.2,1,-1,-1
4,8,0,1,24.6,25.7,1,-1,-1
4,9,0,6,29.6,37.2,0,0,1013
4,10,0,4,28.3,45.6,1,-1,-1
4,11,0,9,29,43.2,1,-1,-1
4,12,1,12,21.2,34.9,0,-1,-1
4,13,0,4,29.1,28.7,1,0,1175
4,14,1,4,21.9,27,0,-1,-1
4,15,0,12,26,35.1,1,-1,-1
4,16,0,1,27.8,29.4,0,-1,-1
4,17,0,1,20.8,26,0,-1,-1
4,18,1,12,23.5,51.6,0,-1,-1
4,19,0,2,24.3,23.4,0,-1,-1
4,20,1,9,25.9,39.1,0,-1,-1
4,21,1,12,22.7,38,0,-1,-1
4,22,0,2,22.3,29.7,1,-1,-1
4,23,1,1,25.1,26.6,0,0,905
4,24,1,12,22.9,32.4,1,-1,-1
4,25,0,4,23.4,35.9,1,-1,-1
4,26,1,1,24,25.6,1,-1,-1
4,27,0,12,27.1,38.3,1,-1,-1
4,28,1,4,21.5,23.1,1,0,815
4,29,1,4,27.6,35.2,1,-1,-1
4,30,0,4,25.9,33.1,1,-1,-1
4,31,0,9,24.3,39.1,1,-1,-1
4,32,0,12,23.4,42.2,0,-1,-1
4,33,1,2,27.4,31.2,0,0,905
4,34,1,4,23.1,27.3,1,0,796
4,35,0,1,29.8,32.3,0,0,1086
4,36,0,6,29.5,45.7,0,0,1447
4,37,1,2,29.9,38.1,0,-1,-1
4,38,0,12,29.2,72,1,-1,-1
4,39,1,12,25.5,56.8,0,-1,-1
4,40,1,12,20.4,50.3,1,-1,-1
4,41,0,6,29.9,52,0,-1,-1
4,42,1,2,29.6,37.7,0,-1,-1
4,43,1,1,23.3,24.5,1,-1,-1
4,44,0,1,25.4,26.8,1,-1,-1
4,45,1,9,26.1,50.2,1,-1,-1
4,46,0,1,29.6,34.3,0,-1,-1
4,47,1,6,27.3,44.2,0,-1,-1
4,48,1,4,25.6,36.2,0,0,1627
5,1,0,2,23.1,20.9,1,-1,-1
5,2,1,6,28.4,35.7,1,0,1120
5,3,0,1,23.3,31.1,0,-1,-1
5,4,1,6,23.7,25,1,0,1175
5,5,1,1,28.9,30.6,0,-1,-1
5,6,1,9,27.9,42.2,0,-1,-1
5,7,0,1,27.5,29.1,0,-1,-1
5,8,1,12,23.5,39.4,1,-1,-1
5,9,1,6,26.2,43.6,1,-1,-1
5,10,1,1,21.8,23.1,1,-1,-1
5,11,0,6,22.3,30,1,-1,-1
5,12,1,12,25.8,56.8,1,-1,-1
5,13,0,6,22.4,37.3,1,-1,-1
5,14,1,1,21.6,22.9,1,0,1519
5,15,1,4,22.9,29,0,-1,-1
5,16,0,2,29.9,40.3,1,-1,-1
5,17,0,12,29.1,51.4,1,0,1519
5,18,1,2,22.1,22.6,1,0,1284
5,19,1,4,26.7,35.3,0,-1,-1
5,20,0,12,29,49.3,0,0,1464
5,21,0,6,21.9,35.5,1,-1,-1
5,22,1,2,29.4,34.4,0,0,1319
5,23,0,4,25.4,35.1,1,0,778
5,1,1,6,26.6,43.8,1,-1,-1
5,2,0,12,23,34.5,1,-1,-1
5,3,1,6,22,36.3,1,-1,-1
5,4,0,4,27.2,31.9,1,-1,-1
5,5,1,6,26.3,43.3,0,-1,-1
5,6,1,1,23.3,30.3,1,-1,-1
5,7,0,2,20.2,18.3,0,0,1103
5,8,0,6,23.9,25.7,1,0,778
5,9,0,2,27,33,1,-1,-1
5,10,1,9,27.8,44.9,1,0,814
5,11,1,2,27,30.8,1,-1,-1
5,12,1,12,27.1,37.5,1,-1,-1
5,13,1,4,26.7,43.2,1,-1,-1
5,14,0,1,26.7,28.6,0,1,1139
5,15,0,1,26.7,28.3,0,-1,-1
5,16,1,4,29.8,49.2,1,-1,-1
5,17,0,9,28.8,33.3,1,-1,-1
5,18,1,2,26.5,29.7,0,-1,-1
5,19,1,12,27.4,45.9,0,0,1321
5,20,0,12,28.4,51.2,0,-1,-1
5,21,0,9,22.4,36,1,-1,-1
5,22,0,12,26.3,68.4,1,-1,-1
5,23,0,2,25.5,29,1,0,652
5,24,0,6,28.6,34.1,1,-1,-1
5,25,0,2,24.6,33.7,1,-1,-1
5,26,0,9,21.3,28.5,0,0,1049
5,27,1,9,29.2,42.1,0,-1,-1
5,28,0,2,28.7,33.1,0,-1,-1
5,29,0,2,22.2,28.9,0,-1,-1
5,30,0,2,23.2,26.8,0,0,1067
5,31,0,9,26.5,38.4,0,-1,-1
5,32,1,2,28.7,33.5,0,-1,-1
5,33,0,9,25.7,37.3,0,0,1103
5,34,0,6,29,43.8,1,-1,-1
5,35,1,6,23.3,40,1,0,1049
5,36,0,4,28.7,39.5,0,-1,-1
5,37,0,1,26.3,28.8,0,0,1122
5,38,0,9,22.8,33.5,1,-1,-1
5,39,0,2,22.9,27.5,1,0,1193
5,40,1,9,26.7,51.5,0,-1,-1
5,41,0,1,27.9,27.1,0,-1,-1
5,42,1,12,26.4,58.8,1,-1,-1
5,43,0,2,20.4,29.1,1,-1,-1
5,44,1,1,28,31,0,-1,-1
5,45,1,6,23.5,38.1,0,-1,-1
5,46,1,6,25.1,40.7,0,-1,-1
5,47,1,1,21.8,28,0,-1,-1
5,48,1,6,23.3,37.8,0,0,1120
5,49,0,1,20.4,22.7,0,-1,-1
5,50,1,6,20.3,40.3,1,0,1139
5,51,1,1,20.1,22.2,1,-1,-1
5,52,1,12,25.6,55.8,1,0,1338
5,53,1,9,28.2,55.1,0,-1,-1
5,54,1,4,27,52.9,0,0,1120
5,55,1,2,26.8,31.8,1,0,1319
5,56,1,4,20.6,18.8,0,-1,-1
5,57,0,4,27.1,37.5,0,-1,-1
5,58,0,6,24.6,93.5,0,-1,-1
5,59,1,6,23.8,23.6,1,-1,-1
5,60,1,2,21.4,46.2,1,-1,-1
5,61,1,6,23.7,37.2,0,-1,-1
5,62,1,2,25.4,30.4,1,0,1356
5,63,1,6,28.9,29.9,0,-1,-1
5,64,0,9,28,52.6,0,-1,-1
5,65,0,4,28.9,40.4,1,-1,-1
5,66,1,1,23,25.3,1,-1,-1
5,67,0,12,25.9,32.3,0,-1,-1
5,68,1,4,24.8,23.5,0,0,1591
5,69,0,4,24.7,57.3,0,-1,-1
5,70,1,9,21,85.7,0,-1,-1
5,71,1,9,26.5,33.4,1,0,1321
5,72,1,2,27,33,0,0,994
5,73,1,9,26.3,52.5,0,-1,-1
5,74,0,6,25.5,42.5,1,-1,-1
5,75,0,2,20.2,19.9,1,-1,-1
5,76,1,4,22.3,25.1,1,-1,-1
5,77,0,6,26.1,32.7,1,0,850
6,1,1,1,23.8,24.9,0,0,688
6,2,0,9,29.9,33.7,1,-1,-1
6,3,1,2,23.4,21.2,0,-1,-1
6,4,0,12,22,35.3,0,-1,-1
6,5,1,6,20.9,37.3,1,-1,-1
6,6,0,6,27.6,36.2,1,-1,-1
6,7,0,2,23.5,33.5,0,-1,-1
6,8,0,6,25.4,33.3,1,-1,-1
6,9,1,4,24.2,29.3,1,-1,-1
6,10,0,12,21.1,50,1,-1,-1
6,11,0,12,21.6,34.6,0,-1,-1
6,12,0,4,22,35.3,0,-1,-1
6,13,0,4,26.9,26.2,0,-1,-1
6,14,0,2,23.6,33.7,1,-1,-1
6,15,1,6,22.9,40.9,0,-1,-1
6,16,1,12,23.8,56.4,1,-1,-1
6,17,1,1,22.8,30.5,0,-1,-1
6,18,1,1,20.4,17.7,0,0,615
6,19,0,6,23.5,31,1,-1,-1
6,20,0,4,20.3,20.9,0,-1,-1
6,21,0,4,27.3,33.2,1,-1,-1
6,22,1,4,24.2,35.9,0,-1,-1
6,23,0,9,21,30.9,0,-1,-1
6,24,0,2,24.3,27,0,-1,-1
6,25,1,2,26.3,29.2,1,0,1013
6,26,0,4,20.3,30.7,1,0,885
6,27,1,1,20.1,15.2,1,-1,-1
6,28,1,1,23.7,25.2,1,-1,-1
6,29,0,12,29.4,137.5,0,-1,-1
6,30,1,4,23.9,20.2,1,-1,-1
6,31,1,6,22.7,20.3,0,-1,-1
6,32,0,1,26.1,46.5,0,-1,-1
6,33,1,9,27.4,41.7,1,-1,-1
6,34,1,2,27.6,31,1,-1,-1
6,35,1,6,29.6,26.5,0,-1,-1
6,36,0,2,20.5,40.2,0,0,795
6,37,1,1,27.3,93.4,0,0,850
6,38,0,6,24.3,15.1,1,0,615
6,39,0,4,27.2,695.1,1,0,1212
6,40,0,1,26.7,559.7,1,-1,-1
6,41,1,9,27.7,39.7,1,-1,-1
6,42,0,4,28.9,34.7,0,-1,-1
6,43,1,4,21.2,25.4,1,-1,-1
6,44,0,2,20.1,11.1,1,-1,-1
6,45,0,2,26.6,14.7,0,-1,-1
6,46,1,2,22.3,24.6,1,-1,-1
6,47,0,6,26.1,-199.7,1,-1,-1
6,48,0,6,27.4,-209.6,0,-1,-1
6,49,1,1,21.5,22.6,1,0,1266
6,50,1,1,24.6,510.2,1,-1,-1
6,51,1,4,27.4,32.9,0,-1,-1
6,52,1,6,23,13.7,0,-1,-1
6,53,0,9,23.4,14.6,0,0,1826
6,54,1,4,24.9,-507.4,1,-1,-1
6,55,0,6,29.5,-265.2,1,-1,-1
6,56,1,6,20.5,-184.3,1,-1,-1
6,57,1,12,26.5,42,1,0,1285
6,58,0,1,25.3,345.5,0,-1,-1
6,59,1,9,24,15.4,1,-1,-1
6,60,0,12,25,40.2,0,-1,-1
6,61,0,4,20.1,-396.5,0,0,1465
6,62,1,4,21.9,26.6,1,-1,-1
6,63,0,2,21.2,23.5,1,-1,-1
6,64,0,12,27.3,-81.9,0,-1,-1
6,65,0,4,29.3,35.6,0,0,1284
6,66,1,9,29.2,-106.4,0,0,1139
6,67,1,4,20.3,-107.2,1,-1,-1
6,68,0,4,20.4,25,0,-1,-1
6,69,0,1,23.2,24.6,0,-1,-1
6,70,0,9,25,14.9,1,-1,-1
6,71,0,9,29.8,44.5,1,-1,-1
6,72,0,4,21.2,-112,0,-1,-1
6,73,1,4,23,28.2,1,0,1574
6,74,0,9,24.4,36.7,0,-1,-1
6,75,1,9,27.9,41.9,1,0,1429
6,76,1,4,27.1,15,0,-1,-1
6,77,1,12,27,45.4,0,-1,-1
6,78,1,4,23.5,-122.3,1,-1,-1
6,79,1,2,25,28,0,-1,-1
6,80,0,2,28.5,32,1,-1,-1
6,1,0,9,21.7,29.9,1,-1,-1
6,2,0,1,29.7,31,1,0,1050
6,3,1,12,24.1,56,1,-1,-1
6,4,0,1,25,26.3,1,-1,-1
6,5,1,12,23.6,37.7,1,-1,-1
6,6,0,6,27.6,28.8,1,-1,-1
6,7,1,9,24.2,35.2,1,0,1176
6,8,1,4,22.8,28.6,0,-1,-1
6,9,0,4,30,30.9,0,0,742
6,10,1,12,20.9,37.1,0,-1,-1
6,11,1,2,26.8,35.3,0,-1,-1
6,12,0,9,23.4,37.1,0,0,922
6,13,0,9,24.5,41.5,1,0,1013
6,14,1,1,25,24.9,1,-1,-1
6,15,0,12,22.4,45.7,0,-1,-1
6,16,1,2,20,23.6,1,-1,-1
6,17,1,1,24.1,24,1,-1,-1
6,18,0,12,22.3,45.5,0,0,940
6,19,0,2,28.8,31.9,0,-1,-1
6,20,0,1,25.4,27.9,1,-1,-1
6,21,1,1,22.2,24.4,1,0,1483
6,22,0,6,27.4,44.4,0,0,1193
7,1,0,2,22,19.9,1,0,1394
7,2,1,4,22,25.9,1,-1,-1
7,3,0,4,21.1,24.8,0,-1,-1
7,4,0,4,28.5,28.9,0,0,1447
7,5,0,2,21.7,23.7,0,0,995
7,6,0,12,24.7,41.4,0,-1,-1
7,7,0,1,26.5,25.2,1,-1,-1
7,8,0,4,25.8,28.1,1,0,1122
7,9,1,4,22.1,30.5,1,0,1230
7,10,1,4,20.2,26.7,0,-1,-1
7,11,0,6,29.6,43.8,1,-1,-1
7,12,1,4,20.8,34.2,0,-1,-1
7,13,0,6,25.2,37.3,0,-1,-1
7,14,1,9,20.8,35.5,0,-1,-1
7,15,1,1,28.5,30.9,1,0,941
7,16,1,4,25.4,34.6,1,-1,-1
7,17,0,1,29.8,32.6,1,-1,-1
7,18,0,6,25,32.6,1,-1,-1
7,19,0,9,24.8,44.5,1,-1,-1
7,20,0,12,28.1,57.5,0,0,922
7,21,1,4,29.7,41.7,1,1,1212
7,22,0,6,25.5,39.3,0,-1,-1
7,23,0,9,27.4,41.8,0,1,1122
7,24,0,2,26.7,30.1,0,-1,-1
7,25,1,6,26,35.6,1,-1,-1
7,26,1,9,25,38.7,0,1,1266
7,27,1,2,27.3,20.8,1,0,742
7,28,0,4,28.5,60.6,1,1,1157
7,29,0,6,25.8,57.2,1,-1,-1
7,30,1,12,25.5,41.3,1,1,958
7,31,1,6,26.2,33.5,1,-1,-1
7,32,0,2,23.7,26,0,0,832
7,33,1,6,22.5,29.1,0,-1,-1
7,34,0,9,26.3,70.5,0,-1,-1
7,35,1,2,21.3,23.4,0,-1,-1
7,36,1,4,26.9,32.2,1,-1,-1
7,37,0,1,26.1,41.7,1,1,994
7,38,1,12,29.8,32.4,0,-1,-1
7,39,1,4,20.6,37.4,1,-1,-1
7,40,0,12,29,31.5,1,-1,-1
7,41,0,2,26.2,28.8,1,-1,-1
7,42,0,9,22,31.6,0,-1,-1
7,43,0,12,25.8,28.1,0,-1,-1
7,44,1,12,24.6,38.7,1,0,1338
7,45,1,6,25.4,24.7,0,0,1031
7,46,1,1,22.3,31.3,1,-1,-1
7,47,0,6,28.7,38.4,0,-1,-1
7,48,1,9,21.3,31.9,1,-1,-1
7,49,0,12,21.9,26.2,0,0,1067
7,50,0,9,22.3,48.9,0,-1,-1
7,51,0,4,22,27.2,0,-1,-1
7,52,1,1,27.9,24.4,1,-1,-1
7,53,0,6,21.5,29,1,-1,-1
7,54,0,4,20.5,25.3,0,0,1609
7,55,0,4,29.8,29.9,1,0,1573
7,56,1,2,24.6,34.6,0,1,1229
7,57,0,1,23.3,24.8,1,-1,-1
7,58,1,4,21.4,26.9,1,-1,-1
7,59,1,12,28.8,69.1,1,-1,-1
7,60,0,1,27.9,29.7,0,0,1338
7,61,0,1,21.6,27.5,0,-1,-1
7,62,1,12,22.7,31.6,0,0,1265
7,63,0,12,20.7,37.3,0,0,1537
7,64,1,6,23.5,33.9,0,-1,-1
7,65,1,1,23,21.6,1,-1,-1
7,66,1,1,26.7,33.5,0,-1,-1
7,67,1,2,28.3,32.5,0,-1,-1
7,68,0,6,25.9,37.4,0,-1,-1
7,69,0,9,23.8,50.7,1,1,1356
7,70,1,2,25.3,29,1,-1,-1
7,71,0,9,29.9,61.5,0,-1,-1
7,72,1,9,29.3,60.2,0,-1,-1
7,73,0,12,29.7,55.1,1,-1,-1
7,74,0,4,24.4,31.5,0,-1,-1
7,75,1,2,29,33.2,0,0,1212
7,76,1,4,24.1,31.4,0,-1,-1
7,77,1,1,27.7,29.8,0,-1,-1
7,78,1,9,25.6,53.3,1,-1,-1
7,79,0,9,29.7,49.6,1,-1,-1
7,80,0,12,20.9,39.5,0,-1,-1
7,1,0,9,23.9,44.5,1,-1,-1
7,2,1,2,29.3,31.9,0,-1,-1
7,3,1,6,23.5,29.6,1,-1,-1
7,4,1,6,25.9,32.6,1,0,706
7,5,1,4,20.6,20.3,0,0,1031
7,6,0,1,23.9,22,1,0,1193
7,7,1,6,22.7,30.7,0,-1,-1
7,8,0,12,23.1,33.3,0,-1,-1
7,9,0,9,25.3,38.6,1,-1,-1
7,10,1,9,26.6,48,1,1,868
7,11,0,6,22.6,30,0,-1,-1
7,12,0,9,23.3,39.3,0,-1,-1
7,13,0,9,27.8,46.9,1,1,977
7,14,0,4,25.8,31.1,1,-1,-1
7,15,1,9,25.9,41.6,1,1,851
7,16,1,6,26.4,34.1,1,0,1031
8,1,1,4,21.3,20.5,0,-1,-1
8,2,1,1,25.6,22.4,0,-1,-1
8,3,1,12,20.8,31.2,1,-1,-1
8,4,0,9,21.3,29.4,0,-1,-1
8,5,1,9,26.9,29.5,0,0,616
8,6,1,1,27.7,29,0,-1,-1
8,7,0,9,24.6,34.2,1,-1,-1
8,8,1,6,25.9,32.7,0,1,1484
8,9,1,12,27.8,38.6,1,-1,-1
8,10,1,4,22,24.9,0,-1,-1
8,11,1,4,22.4,25.4,1,-1,-1
8,12,0,1,21.4,19.5,0,0,977
8,13,0,2,24.2,28.6,1,-1,-1
8,14,0,1,23.2,24,0,0,1103
8,15,1,4,24.5,25,1,-1,-1
8,16,0,12,25.3,31.4,1,-1,-1
8,17,1,4,29.2,29.8,0,0,706
8,18,1,2,29.7,31.9,1,0,1230
8,19,0,1,20.3,21.2,1,-1,-1
8,20,0,1,21.8,24.9,0,-1,-1
8,21,1,1,21.1,20.3,0,-1,-1
8,22,1,4,28.6,33.4,0,-1,-1
8,23,0,12,20.4,30.4,0,-1,-1
8,24,0,2,28.3,30.7,1,1,1447
8,25,0,1,27.4,28.5,1,-1,-1
8,26,0,2,26.4,30.7,1,-1,-1
8,27,0,4,21,26.3,0,-1,-1
8,28,0,2,20.1,20.2,0,0,1157
8,29,1,4,28.8,35.2,0,-1,-1
8,30,0,1,21.7,22.5,0,-1,-1
8,31,0,9,22.4,30.1,1,-1,-1
8,32,0,9,25.4,32.1,0,-1,-1
8,33,0,12,26.6,38.8,0,1,778
8,34,0,4,25.2,28.6,0,-1,-1
8,35,0,9,26,33.8,1,-1,-1
8,36,0,9,20.2,28.5,1,-1,-1
8,37,0,9,27.2,32.8,0,1,615
8,38,1,1,28.6,29.4,0,-1,-1
8,39,0,4,23.9,23.3,0,-1,-1
8,40,1,12,20.3,27,1,-1,-1
8,41,0,9,28.8,31.1,1,-1,-1
8,42,0,6,23.1,31.6,0,-1,-1
8,43,1,6,23.4,23.8,1,-1,-1
8,44,0,2,23.9,29.1,0,-1,-1
8,45,0,2,22.8,21.3,1,0,1428
8,46,1,1,28.1,32.1,1,-1,-1
8,47,1,9,22.8,28.3,0,-1,-1
8,48,0,6,20.4,23.7,1,-1,-1
8,49,1,4,29.5,32.7,1,-1,-1
8,50,0,4,26.3,26.4,0,-1,-1
8,51,1,1,23.1,26.3,1,-1,-1
8,52,0,4,27.7,30.7,0,-1,-1
8,53,1,1,26.9,27.6,0,-1,-1
8,54,0,2,22.4,23.6,0,-1,-1
8,55,0,9,26.4,32.8,1,-1,-1
8,56,1,4,22.8,28.3,0,-1,-1
8,57,0,12,26.1,30.6,0,-1,-1
8,58,1,12,22.8,26.7,1,-1,-1
8,59,1,1,28.5,32.5,1,1,1302
8,60,0,12,25.3,33.2,1,-1,-1
8,61,0,6,21.6,27.3,0,-1,-1
8,62,1,6,28.8,33.3,1,-1,-1
8,63,0,12,20.2,29.3,1,-1,-1
8,64,0,6,25.7,27.4,1,1,904
8,65,0,2,27.3,33.7,0,-1,-1
8,66,0,12,21,33.3,1,1,994
8,67,0,2,24.1,22.7,1,0,832
8,68,1,9,25.6,30.8,0,1,560
8,69,0,9,20.3,24,1,1,561
8,70,0,12,28.4,37.9,1,-1,-1
8,71,1,1,26.2,26.7,0,-1,-1
8,72,1,12,28.7,35,1,-1,-1
8,73,1,4,29.7,29.7,1,-1,-1
8,74,0,4,20.6,22.1,1,0,1646
8,75,0,12,23,28.3,0,-1,-1
8,76,0,2,29.8,31,0,0,868
8,77,1,1,28.3,26.7,0,-1,-1
8,78,0,2,29.5,33.4,0,-1,-1
8,79,0,1,26.6,27.1,0,0,995
8,80,1,6,21.4,24,1,-1,-1
8,1,1,1,28.9,30.2,0,-1,-1
8,2,0,9,21.1,29.1,1,1,922
8,3,0,6,27.9,27.4,1,0,1050
8,4,1,6,28,33.4,1,-1,-1
8,5,0,4,25.7,29,1,-1,-1
8,6,1,6,25.9,30.9,0,-1,-1
8,7,0,9,22.4,34.7,1,-1,-1
8,8,0,6,24.3,29,1,-1,-1
8,9,1,1,22.4,23.1,0,-1,-1
8,10,0,4,29.9,39.7,1,-1,-1
8,11,1,4,24.8,33,1,-1,-1
8,12,0,1,28.1,25.5,0,-1,-1
8,13,1,12,22.3,26,0,1,959
8,14,0,9,28.7,62.9,0,-1,-1
8,15,0,9,22,27.9,1,1,1176
8,16,0,1,23,18.4,0,0,796
8,17,0,6,23.4,21.5,0,-1,-1
8,18,0,4,26.5,38.3,0,1,1031
8,19,1,4,22.7,21,0,0,1086
8,20,0,6,20.1,22.7,1,-1,-1
8,21,0,2,27.1,28.3,1,-1,-1
8,22,0,1,26.1,26.7,0,-1,-1
8,23,0,6,23.7,31.2,0,1,1321
8,24,0,2,26.9,30.9,1,-1,-1
8,25,1,1,25.7,24,1,0,1103
8,26,0,4,27.4,31.8,1,-1,-1
8,27,1,1,23.9,22.8,0,0,1718
8,28,1,4,21.5,23.1,0,-1,-1
8,29,0,12,24.8,30.2,1,-1,-1
8,30,1,6,20.9,22,0,-1,-1
8,31,0,1,24.2,24.7,0,0,778
8,32,0,6,25.3,26.5,1,0,958
8,33,0,12,27.4,36.5,1,-1,-1
8,34,0,2,26.7,26.4,0,0,1230
8,35,0,12,29.7,35.2,1,-1,-1
8,36,1,1,25.6,26.1,1,-1,-1
8,37,0,2,26.4,27.5,1,-1,-1
8,38,1,12,25.3,31.5,0,-1,-1
8,39,0,2,28.1,28.1,0,-1,-1
8,40,0,1,23.3,23.8,1,0,814
8,41,1,9,22.2,26.6,0,-1,-1
8,42,1,12,27.8,33.5,1,1,1084
8,43,1,4,20.5,21.9,0,-1,-1
8,44,0,1,21.5,23,0,-1,-1
8,45,0,4,29.1,29.5,1,-1,-1
8,46,1,12,24.8,31.8,1,-1,-1
8,47,0,1,22.3,22.7,1,0,1809
8,48,0,9,25.2,29.2,1,-1,-1
8,49,1,12,23.5,28.5,0,1,995
9,1,1,12,27.2,56.8,0,0,597
9,2,0,4,29.5,36.4,0,-1,-1
9,3,0,2,20.2,15.7,0,0,688
9,4,1,9,27,41.3,0,-1,-1
9,5,0,6,23.5,22.1,0,1,308
9,6,0,1,22.1,14.2,1,-1,-1
9,7,0,6,22.5,16.2,1,0,488
9,8,0,4,21.9,76.9,0,-1,-1
9,9,0,4,25.1,29.8,0,-1,-1
9,10,1,4,26.9,32,1,0,759
9,11,0,9,22.8,32.8,0,-1,-1
9,12,1,12,22.2,35,0,-1,-1
9,13,0,4,23.8,17.3,0,0,453
9,14,1,9,25.1,21.3,1,0,380
9,15,0,1,29,30.6,0,0,723
9,16,0,9,20.2,30.4,0,-1,-1
9,17,0,6,20.3,27.3,0,0,380
9,18,1,4,25.7,22.5,1,-1,-1
9,19,1,4,27.9,24.4,1,-1,-1
9,20,1,12,24.1,42.4,0,-1,-1
9,21,1,9,23.8,85.5,1,-1,-1
9,22,0,2,23.6,19.1,1,-1,-1
9,23,1,4,25.8,32.7,1,-1,-1
9,24,0,1,25.7,27.5,1,-1,-1
9,25,1,4,29,36.8,1,1,289
9,26,0,4,27.2,21.1,1,-1,-1
9,27,1,4,25,30.3,1,-1,-1
9,28,1,9,24.3,110.7,0,-1,-1
9,29,1,6,26.3,34.6,0,-1,-1
9,30,0,12,22.2,35.7,0,0,850
9,31,1,4,25.4,68.3,0,1,524
9,32,1,9,20.8,77.3,0,1,451
9,33,1,6,29.5,39.9,0,0,560
9,34,0,1,24.5,26.1,1,-1,-1
9,35,0,9,26.4,41.5,1,-1,-1
9,36,0,1,25.1,20.1,0,0,723
9,37,0,4,27.7,35.2,0,0,686
9,38,0,2,23.4,27,0,-1,-1
9,39,0,9,24,28.5,0,0,487
9,40,1,1,20.6,22.3,0,-1,-1
9,41,1,2,28.4,33,0,-1,-1
9,42,1,6,28.6,58.7,0,-1,-1
9,43,0,9,26.3,44.8,0,-1,-1
9,44,0,6,22.4,46,0,-1,-1
9,45,0,4,24,42.4,0,1,560
9,46,1,4,28.8,38.1,0,-1,-1
9,47,1,9,20.3,47.9,1,0,723
9,48,0,1,20.2,21.8,0,-1,-1
9,49,0,4,20.1,19.1,1,0,814
9,50,0,9,20.9,35.9,0,-1,-1
9,51,1,12,21.9,28.7,1,-1,-1
9,52,0,9,25.2,30.3,1,-1,-1
9,53,0,4,29.1,57.5,1,-1,-1
9,54,1,2,23.1,20.9,0,1,977
9,55,1,9,24.1,103.3,0,-1,-1
9,56,0,4,26.6,22.6,0,-1,-1
9,57,0,1,23.8,25.5,0,-1,-1
9,58,0,4,23.3,19.8,0,-1,-1
9,59,1,6,23.7,21.5,0,0,887
9,60,0,4,29.2,68.9,1,0,995
9,61,0,9,24.1,38.8,0,-1,-1
9,62,0,1,22.2,47.7,1,-1,-1
9,63,0,1,22.9,24.5,0,0,1139
9,64,0,6,27.1,38.5,1,-1,-1
9,65,0,4,29,91.7,0,-1,-1
9,66,0,6,23.8,20.4,1,-1,-1
9,67,0,2,27.8,31.8,0,0,507
9,68,0,1,20.9,22.5,1,-1,-1
9,69,0,1,22.8,48,0,1,977
9,70,1,4,21,17.6,1,0,380
9,71,1,12,22.6,42.7,1,-1,-1
9,72,0,12,25,47.2,1,0,543
9,73,1,4,29,25.9,0,0,977
9,74,1,12,26.2,31.2,0,-1,-1
9,75,1,9,26.6,46.4,1,-1,-1
9,76,1,12,25.9,153.6,1,0,1265
9,77,1,12,29.8,59,0,-1,-1
9,78,0,9,21.7,21.9,1,-1,-1
9,79,0,9,27.3,27.5,1,-1,-1
9,80,0,4,29,87.9,0,-1,-1
9,1,0,6,21.4,26.9,1,0,1285
9,2,0,9,22.1,32.9,0,0,543
9,3,1,9,29.4,64.1,1,-1,-1
9,4,1,6,22.8,31.7,0,-1,-1
9,5,1,4,21.4,22.2,0,0,398
9,6,0,1,26.7,28.6,1,-1,-1
9,7,0,9,28,45,0,1,1429
9,8,1,1,26.3,32.6,0,-1,-1
9,9,1,4,29.8,31.3,0,-1,-1
9,10,1,6,27.3,36.6,1,0,922
9,11,1,1,21,22.3,1,0,905
9,12,1,1,26.8,28.5,0,-1,-1
9,13,0,2,29,37.6,0,-1,-1
9,14,1,2,25.9,33.6,1,-1,-1
9,15,0,2,26.9,34.9,0,-1,-1
9,16,0,1,20.9,22.2,1,-1,-1
9,17,1,12,27.8,40.4,0,0,1266
9,18,0,1,23.2,26.9,0,-1,-1
9,19,0,6,20.1,31.3,1,0,597
9,20,0,9,29.8,77.3,0,-1,-1
9,21,1,2,28.9,33.2,0,-1,-1
9,22,0,12,29.3,54.6,0,-1,-1
9,23,0,2,26.3,40.5,1,-1,-1
9,24,1,1,24.1,25.9,1,-1,-1
9,25,1,6,27.5,39.6,1,-1,-1
9,26,1,12,21.1,39.3,0,-1,-1
9,27,0,2,24.2,27.8,0,-1,-1
9,28,1,6,21.4,30.8,0,-1,-1
9,29,0,6,29.3,42.2,0,-1,-1
9,30,1,2,26.8,30.8,0,-1,-1
9,31,1,2,25.2,29,0,-1,-1
9,32,0,2,20.1,23.1,1,-1,-1
9,33,1,1,25.8,27.8,0,-1,-1
9,34,0,9,29.3,48.4,0,-1,-1
9,35,0,12,22.1,41.2,0,-1,-1
9,36,1,1,23.9,25.7,1,-1,-1
9,37,0,4,29.5,29.8,1,-1,-1
9,38,1,6,29.5,32.3,1,0,1122
9,39,0,6,21.8,25.6,0,-1,-1
9,40,0,4,28.5,37.4,0,-1,-1
9,41,1,9,27.5,64.4,1,-1,-1
9,42,1,9,27.1,45.7,1,0,688
9,43,1,6,26.1,39.7,0,-1,-1
9,44,1,6,24,29.7,1,-1,-1
9,45,1,12,22.5,45.6,0,-1,-1
9,46,0,2,25.3,36.3,1,0,1084
9,47,1,4,28.9,71.1,0,0,596
9,48,0,1,22.6,24.2,0,0,1428
9,49,1,6,25.2,19.6,0,-1,-1
9,50,1,2,28.7,32.8,0,-1,-1
9,51,0,12,28.1,-1048.3,0,0,596
9,52,1,4,22.4,28.3,0,-1,-1
9,53,1,2,23.6,207.6,0,-1,-1
9,54,1,4,28.7,36.2,0,-1,-1
9,55,1,9,27.5,-209.5,0,0,470
9,56,1,4,20.2,25.3,0,-1,-1
9,57,0,2,25.8,14.5,1,-1,-1
9,58,1,4,24.7,-263.9,0,-1,-1
9,59,0,1,28.9,15.8,0,0,1049
9,60,0,4,27.4,16.5,0,-1,-1
9,61,0,12,26.2,-90.7,1,-1,-1
9,62,0,9,28.6,-127.6,1,-1,-1
9,63,0,9,25.5,39.9,0,-1,-1
9,64,0,12,22.2,38.6,1,-1,-1
9,65,0,2,21.1,1077.5,1,-1,-1
9,66,0,2,20.2,11.6,1,-1,-1
9,67,1,6,27.4,37.9,1,-1,-1
9,68,0,4,26.3,-378,0,-1,-1
9,69,0,9,29.1,45.5,1,0,760
9,70,0,12,21.4,15.1,1,0,1302
9,71,1,4,21.6,27.6,1,0,941
9,72,0,9,25.5,41.3,0,0,1248
9,73,0,6,27.6,18.5,1,-1,-1
9,74,0,2,29,385.1,1,-1,-1
9,75,0,9,23.5,38.7,1,-1,-1
9,76,0,2,26.3,30.3,0,-1,-1
9,77,1,6,24,34.5,1,-1,-1
9,78,1,6,23.7,15.9,0,-1,-1
9,79,1,1,29.7,17.2,1,-1,-1
9,80,1,9,21,-112.9,1,-1,-1
10,1,0,2,24.4,33.4,0,0,1.863
10,2,0,4,23,27.2,1,0,1.62700000000001
10,3,0,12,21,18.5,1,0,1.17399999999998
10,4,0,4,25.7,66.4,0,1,1.20499999999998
10,5,1,1,20.6,21.7,0,0,1.11700000000002
10,6,0,12,26.8,27.3,1,0,1.21100000000001
10,7,1,4,20.5,41,0,1,1.06599999999997
10,8,1,9,27.6,41.7,0,1,1.19800000000004
10,9,1,9,30,29.7,0,0,0.843999999999994
10,10,1,1,21.8,22.9,1,0,1.23599999999999
10,11,0,6,29.5,28.9,0,-1,-8.68900000000002
10,12,0,4,28.1,33.9,0,1,1.00200000000001
10,13,1,1,27.9,29.2,0,0,1.24299999999999
10,14,0,2,27,29.6,1,0,1.21800000000002
10,15,0,9,25.8,37.2,0,1,1.01900000000001
10,16,1,12,28.3,42.9,1,1,0.998000000000047
10,17,1,2,27.7,22.8,0,0,1.173
10,18,1,4,22.2,19.9,0,0,0.882000000000005
10,19,1,12,21.5,31.5,1,-1,-9.04899999999998
10,20,1,2,24.3,26.3,1,0,0.613
10,21,0,6,20.7,25.8,1,0,1.459
10,22,0,4,24.3,28.7,1,1,0.906999999999982
10,23,1,12,21.7,24.3,1,0,1.16499999999996
10,24,0,12,28,32.5,1,0,0.973000000000013
10,25,0,12,26.8,55.5,0,1,1.28599999999994
10,26,0,6,23.6,29.6,0,0,1.22000000000003
10,27,1,12,26.2,40.3,0,1,0.781000000000063
10,28,0,9,28.4,39,1,1,1.06699999999989
10,29,1,6,22.7,28,0,0,1.58300000000008
10,30,1,1,26.6,27.7,0,0,0.865999999999985
10,31,0,9,24.5,33.6,0,0,1.63299999999992
10,32,0,4,24.1,28.4,0,0,1.1049999999999
10,33,1,1,27.9,29.2,1,-1,-9.81700000000001
10,34,0,12,29.7,45.9,1,1,1.35400000000004
10,35,0,1,25.8,26.9,0,0,1.60599999999999
10,36,1,2,28.3,36.8,1,1,1.49000000000001
10,37,0,12,22.3,33.7,0,0,1.20299999999997
10,38,0,9,25.3,35.6,0,0,1.10399999999993
10,39,1,9,26.6,32.1,0,0,1.91499999999996
10,40,1,12,29.9,47.2,1,0,1.45800000000008
10,41,0,9,22.9,28.2,0,0,1.50799999999992
10,42,0,12,28.1,45.5,1,0,1.76999999999998
10,43,1,6,26.3,35.1,0,-1,-10.149
10,44,1,6,23.5,31.3,0,1,1.18600000000004
10,45,0,4,26.2,31.8,1,1,0.595000000000027
11,1,1,2,21.1,23,1,0,1.39100000000002
11,2,1,2,21.2,23.5,1,0,0.777000000000044
11,3,1,12,29.2,38.3,0,0,0.914999999999964
11,4,0,12,22.3,32.4,1,0,0.689000000000021
11,5,0,6,23.9,30.3,0,0,0.918999999999983
11,6,1,1,27.3,27.7,0,0,1.048
11,7,1,4,28.3,36.8,0,0,0.575999999999965
11,8,0,6,24.6,35.6,0,0,0.668000000000006
12,1,1,6,24.8,25.2,0,0,0.949000000000005
12,2,1,9,21.6,29.9,0,1,1.48399999999999
12,3,1,9,21.5,27.7,1,0,0.817999999999998
12,4,1,9,27.3,30.5,0,0,0.900000000000006
12,5,0,2,27.8,30.1,1,0,1.32599999999999
12,6,0,1,24.2,25.3,0,0,1.527
12,7,1,6,25.4,41.6,0,1,0.716000000000008
12,8,0,12,24.6,37.9,0,1,0.869999999999976
12,9,1,9,24.2,32.7,1,0,0.91500000000002
12,10,0,1,28.3,33.8,1,1,0.617999999999995
12,11,1,1,24,25,1,0,1.00999999999999
12,12,0,6,26.8,33.8,0,1,1.68800000000002
12,13,0,6,20.6,23.2,0,0,1.06099999999998
12,1,1,6,29.5,37.1,1,1,1.59800000000007
12,2,1,2,28.4,30.3,0,0,0.809000000000083
12,3,1,9,21.9,29.3,1,0,0.836999999999989
12,4,0,6,25.4,25,0,0,0.876999999999953
12,5,0,1,29.4,30.7,1,0,0.990000000000009
12,6,1,9,25.8,36.6,1,1,1.1579999999999
12,7,1,6,22.6,28.2,1,1,1.62099999999998
12,8,0,6,26.4,32.5,1,0,1.08699999999999
12,9,0,12,22.7,33.6,1,0,0.605000000000018
12,10,1,2,28.3,26.3,0,0,0.740999999999985
12,11,0,2,28.1,30.5,1,0,0.856999999999971
12,12,0,9,26.5,31,0,0,1.08699999999999
12,13,0,2,27.8,27.2,0,0,0.920000000000073
12,14,0,12,21.6,33.1,1,0,0.716999999999985
12,15,1,9,22.4,32.3,1,1,0.855999999999995
13,1,1,12,28.6,42.9,0,0,0.789000000000001
13,2,0,4,29.5,29.2,0,0,0.945999999999998
13,3,0,2,28.1,27.1,0,0,0.832999999999998
13,4,1,9,28.8,44.1,0,0,1.184
13,5,0,12,23.4,53.1,1,1,1.045
13,6,0,9,23.2,37.6,1,0,1.191
13,7,0,9,28.8,44.2,1,1,0.878000000000014
13,8,0,1,29.3,25.4,0,0,0.846000000000004
13,9,1,12,23.8,58.7,0,1,0.87299999999999
13,10,0,6,22.4,37.9,0,0,0.800999999999988
13,11,1,12,22.5,75.4,1,1,0.774000000000001
13,12,1,6,26.8,37,0,0,1.15099999999998
13,13,0,1,26.8,28.7,0,0,0.710999999999984
13,14,0,12,27.7,80.9,0,1,0.836000000000013
13,15,1,1,24.7,26.5,0,0,0.467000000000013
13,16,0,9,26.7,35.4,0,0,1.10300000000001
13,17,0,4,28.6,45,0,0,0.693000000000012
13,18,0,2,21.9,20.3,1,1,0.970999999999975
13,19,1,1,20.2,37.3,0,0,1.38999999999999
13,20,1,9,28.4,390.5,0,1,0.599000000000046
13,21,1,2,22.8,25.5,0,0,0.675000000000011
13,22,1,6,29.7,23.1,0,0,0.687999999999988
13,23,0,12,27.6,298.1,1,1,0.865999999999985
13,24,0,2,24.4,18.2,1,0,0.948000000000036
13,25,1,1,20.4,38.7,0,1,1.30900000000003
13,26,0,4,27.8,23.9,1,0,0.83499999999998
13,27,1,9,23.6,37.7,0,0,0.793999999999983
13,28,0,12,25.7,30.1,0,0,0.745999999999981
13,29,0,1,29.9,32.3,1,0,0.942000000000007
13,30,0,4,25.9,34.1,0,0,0.824000000000012
13,31,1,2,25.2,22.6,0,0,0.788000000000011
13,32,0,2,23.3,27.3,1,0,0.793999999999983
13,33,0,2,26.2,30.9,1,0,0.805999999999983
13,34,0,9,29.9,39.2,0,0,0.747000000000014
13,35,0,1,25.6,23.3,1,0,0.869000000000028
13,36,0,12,28.6,61.5,0,0,1.08100000000002
13,37,0,12,28.7,95.2,1,1,0.812000000000012
13,38,1,9,29.8,45.2,1,0,0.963000000000022
13,1,1,1,28,29.3,0,0,0.967000000000098
13,2,0,2,29.7,32.9,1,0,1.03700000000003
13,3,0,2,27,30.4,1,-1,-8.89599999999996
13,4,0,4,20.1,25,0,0,0.807000000000016
13,5,1,2,21.5,24.6,0,0,0.655999999999949
13,6,0,2,28.4,38.7,0,0,0.547000000000025
13,7,0,1,22.9,16.5,0,0,0.628999999999905
13,8,1,12,29.3,30.4,1,0,0.622000000000071
13,9,1,1,29.2,31.3,0,0,0.551999999999907
13,10,0,2,28.4,24.8,1,0,0.820999999999913
13,11,0,6,22.5,48,0,1,0.708999999999833
13,12,1,4,25.3,27.2,1,0,1.32899999999995
13,13,0,9,30,52.5,0,0,0.879000000000133
13,14,1,6,23,42.8,0,0,0.960000000000036
13,15,1,1,29.9,32.7,0,0,0.566000000000031
13,16,0,2,20.3,24.2,0,0,0.555999999999813
13,17,0,2,22.6,27.2,1,0,0.769000000000005
13,18,1,2,21.3,31.6,0,0,0.597999999999956
13,19,1,4,21.3,19.8,1,0,1.29000000000019
13,20,1,2,25.7,30.7,0,0,0.573000000000093
13,21,0,6,28.2,74.3,1,1,0.827999999999975
13,22,1,9,23.3,44.4,1,0,0.388999999999896
13,23,0,2,21.5,26.2,1,0,0.496999999999844
13,24,0,6,27.5,45.8,1,0,0.798000000000002
13,25,1,12,20.1,67.6,0,1,0.743999999999915
14,1,1,1,26.5,27.7,1,0,1.00400000000002
14,2,1,9,21.8,31.8,0,0,1.52100000000002
14,3,1,1,25.8,27.5,1,0,0.598000000000013
14,4,0,1,29.2,37.9,0,1,1.04600000000005
14,5,1,9,22.9,31.7,0,0,0.73599999999999
14,6,0,12,22.1,42.4,1,1,1.35199999999998
14,7,1,1,25.2,24.4,1,0,0.720000000000027
14,8,0,2,20.9,23.6,0,0,0.896000000000015
14,9,0,1,25.5,25.8,1,0,0.701000000000022
14,1,1,9,23.5,32.4,0,0,1.09400000000005
14,2,1,1,22.9,24.2,1,0,0.731999999999971
14,3,1,12,21,27.5,0,0,0.921000000000049
14,4,0,6,24.8,34.6,1,0,1.14800000000002
14,5,1,9,30,50.7,1,1,0.580000000000041
14,6,1,12,22.8,54.2,1,1,0.663000000000011
14,7,1,4,30,33.1,1,0,0.701999999999998
14,8,0,4,27.4,34.7,0,0,0.8900000000001
15,1,0,9,23.2,32,1,0,1.219
15,2,0,12,28.5,47.1,1,0,0.996000000000002
15,3,0,12,23.8,60.8,1,1,1.123
15,4,1,1,24.8,23.3,1,0,0.836000000000013
15,5,1,2,20.3,21,1,0,0.826000000000008
15,6,0,12,21.2,43.8,1,0,0.682999999999993
15,7,1,9,21.1,32.9,1,0,0.737000000000009
15,8,1,2,28.2,33.6,1,0,0.909000000000006
15,9,1,4,20.2,28.5,0,0,0.954999999999984
15,1,0,4,28,42.2,1,0,1.03300000000002
15,2,0,12,27,24,0,0,1.36299999999994
15,3,0,12,26.3,41.4,0,0,1.46000000000004
15,4,0,4,20.6,17,1,0,0.721000000000004
15,5,1,9,26,26.1,1,0,0.748000000000047
15,6,0,4,24.9,49.3,0,0,0.522000000000048
15,7,0,9,25.5,21.9,0,0,1.01999999999998
15,8,0,1,29.7,61.2,1,1,0.860000000000014
15,9,1,9,27.8,118.7,1,1,0.801000000000045
15,10,1,1,21.5,37.6,0,0,1.01999999999998
15,11,0,4,27.3,33.8,0,0,0.724000000000046
15,12,0,4,20.5,15.5,1,0,0.795999999999935
15,13,0,1,22.1,23.6,0,0,0.962999999999965
15,14,1,12,24.8,246.1,1,1,0.52800000000002
15,15,1,9,23.5,37.1,0,0,1.13
15,16,1,1,20.1,15,0,0,0.519999999999982
15,17,1,6,21.7,31.3,1,1,0.977999999999952
15,18,0,2,28.5,32.5,1,0,0.783000000000015
15,19,1,4,22.5,28.9,1,0,1.20900000000006
15,20,1,9,20.5,20.9,1,0,0.800999999999931
15,21,1,4,24.1,31.7,0,0,0.934000000000083
15,22,0,12,23.7,125.9,1,1,0.891000000000076
15,23,1,4,27.7,61,0,0,0.939000000000078
15,24,0,12,23.6,25.9,1,0,0.842999999999961
15,25,0,1,23.2,18.2,1,0,0.58299999999997
15,26,1,1,23.7,39.9,1,0,0.844000000000051
15,27,0,4,23.7,20.3,0,0,0.739000000000033
15,28,0,4,21.5,19,1,0,1.04900000000009
15,29,0,4,27.7,71.4,1,1,1.14099999999996
15,30,0,12,27.1,166.8,0,1,1.07600000000002
15,31,0,6,29.3,30.2,0,0,0.830000000000041
15,32,0,1,24.4,39.1,1,0,0.645000000000095
15,33,1,6,22.9,34.9,1,0,0.600999999999999
15,34,0,4,20.2,51.5,0,1,0.927000000000021
15,35,0,6,22.8,35.3,1,0,0.719000000000051
15,36,0,2,23,27.4,0,0,0.513000000000034
15,37,1,1,22.4,37.2,0,0,0.944000000000074
15,38,0,9,26.2,47.9,1,0,0.555000000000064
15,39,1,6,26,94.2,1,1,0.929000000000087
15,40,1,2,23.9,48.2,1,1,1.37200000000007
15,41,1,1,25.4,20.6,1,0,1.221
15,42,0,2,27.3,32.8,1,0,0.697000000000116
15,43,1,4,27.6,67,0,1,0.873000000000047
15,44,0,2,29.7,26.6,0,0,1.16099999999983
15,45,1,2,22.8,27.6,1,0,1.22899999999981
15,46,1,1,23.9,26.4,1,1,0.942999999999984
15,47,1,1,27.7,23.6,1,0,1.13400000000001
15,48,0,4,24,34.1,0,0,0.8599999999999
16,1,1,2,22.5,20.3,0,0,0.730999999999995
16,2,0,2,23.8,25.9,0,0,0.994000000000028
16,3,1,4,21.2,31.5,1,0,1.63199999999995
16,4,0,12,27.2,45.4,0,1,0.788999999999987
16,5,1,9,26.2,22.8,1,0,1.23300000000006
16,6,0,1,20.9,36.2,0,1,0.825000000000045
16,7,0,2,20.9,22.9,0,0,0.817999999999984
16,8,1,1,30,47.6,0,1,0.625
16,9,1,2,27.2,42.8,1,1,0.816000000000031
16,10,0,2,24.1,26.6,1,0,1.19799999999998
16,11,1,2,21.5,32.1,1,0,0.800999999999931
16,12,0,6,23.2,63.9,0,1,0.801000000000045
16,13,0,9,28.1,85.5,1,1,0.913999999999987
16,14,1,1,24.6,39,0,1,0.59699999999998
16,15,0,6,28.2,27.1,1,0,0.729000000000042
16,16,1,12,26.4,30.8,0,0,1.17899999999997
16,17,0,4,26.9,45.8,0,0,0.942999999999984
16,18,1,6,22.4,52.4,1,1,1.85300000000007
16,19,1,6,20.6,45.4,0,1,0.745999999999981
16,20,0,6,21,28.7,1,0,0.841999999999985
16,21,1,12,27.4,86.4,1,1,0.906999999999925
16,22,1,2,24.6,28,1,0,1.01400000000001
16,23,0,6,21.5,23.5,0,0,0.742000000000075
16,24,1,1,24.2,21.6,1,0,0.81899999999996
16,25,1,1,26.1,28.2,0,0,1.03699999999992
16,26,0,2,23.3,22.8,1,0,1.07300000000009
16,27,0,6,29.5,36.4,0,0,0.844000000000051
16,28,1,1,22.8,29.2,1,0,0.863000000000056
16,29,1,4,29.1,39.4,1,0,1.12700000000018
16,30,1,9,20.5,37.6,0,0,0.907999999999902
16,31,1,1,27.6,26.1,0,0,0.986000000000104
16,32,0,9,20.4,31,0,0,0.857000000000198
16,1,1,6,29.4,37,1,0,0.683999999999969
16,2,1,6,27.3,49.3,1,1,0.702999999999975
16,3,0,6,22,29.3,1,0,0.708000000000084
16,4,0,4,24,30.4,0,0,0.957999999999856
16,5,1,6,29.3,42.6,0,0,0.7650000000001
16,6,1,1,27.7,30.1,0,1,0.610000000000127
16,7,0,6,25,43.3,0,0,0.815000000000055
16,8,0,12,28.7,53,1,0,0.592999999999847
16,9,0,9,26,44.9,1,0,0.989000000000033
16,10,0,2,25.6,39.5,1,1,0.605999999999995
16,11,0,1,26.6,34.8,0,0,0.807999999999993
16,12,1,4,22,28.8,1,0,0.841999999999871
16,13,1,4,21.1,19.3,0,0,0.711000000000013
16,14,1,1,23.9,37.4,0,0,0.907000000000153
16,15,0,9,27.2,43.9,1,0,0.784999999999854
16,16,0,1,21.9,51.6,1,1,0.634000000000015
16,17,1,9,29.9,50.8,0,0,0.761999999999944
16,18,0,12,27.6,55.1,0,0,0.713999999999942
16,19,0,6,24,76.5,1,1,1.2059999999999
16,20,0,12,27,140.1,1,1,0.816000000000031
16,21,0,2,29.3,35.1,0,0,0.690000000000055
16,22,1,1,30,43.5,1,0,1.41100000000006
16,23,0,6,21,31.8,0,0,0.692999999999984
16,24,1,4,22.2,30.4,1,0,0.981999999999971
16,25,0,1,26.8,29.4,0,0,1.24599999999987
16,26,1,9,22.4,41.9,0,0,0.66599999999994
16,27,0,6,20.5,33.2,0,0,0.711000000000013
16,28,1,2,26.8,32.6,1,0,1.06899999999996
16,29,0,1,22.3,24.8,1,0,0.675999999999931
16,30,0,4,21.7,24.9,0,0,1.10699999999997
17,1,1,4,29.6,44.6,0,1,0.737000000000023
17,2,1,2,25.8,24.4,0,0,0.661999999999978
17,3,0,12,21.4,32,0,0,0.865999999999985
17,4,0,9,26,39.3,0,1,1.02299999999997
17,5,0,1,21.4,20.1,0,0,0.524999999999977
17,6,1,6,21,24.5,1,0,0.966999999999985
17,7,0,12,27,42.7,0,-1,-8.96699999999998
17,8,0,1,24.7,25.9,1,0,0.944999999999993
17,9,0,6,29.6,38.7,1,1,0.584000000000003
17,1,0,4,25.9,30.4,1,0,0.726999999999975
17,2,1,2,20.5,29.2,0,1,0.591000000000008
17,3,0,9,21.3,31.8,0,1,0.833999999999946
17,4,0,9,22,30.5,1,0,1.27300000000002
17,5,1,4,25.3,30.2,0,0,0.503000000000043
17,6,1,4,22,26.6,0,0,0.767000000000053
17,7,1,12,24.1,40.1,0,0,1.01400000000001
17,8,1,12,24.7,43,1,0,1.03999999999996
17,9,1,9,24.1,39.3,1,1,0.701999999999998
17,10,0,6,26,35.7,0,1,0.956999999999994
17,11,1,9,27.8,42.2,1,0,1.46100000000001
17,12,0,9,26.1,32.2,1,0,1.01400000000001
17,13,1,6,27.8,45.8,0,1,0.606000000000108
18,1,1,1,29.1,30.4,0,0,0.538999999999987
18,2,0,4,22.3,21.8,0,1,0.624000000000024
18,3,1,2,26.2,61.1,1,1,1.46799999999996
18,4,1,12,25.7,38,1,0,1.42200000000003
18,5,1,12,25.9,115.7,0,-1,-9.50299999999993
18,6,1,1,29.8,31.2,1,0,0.69399999999996
18,7,0,1,21,22.1,0,0,0.953999999999951
18,8,0,4,29.4,35.7,1,0,1.43299999999999
18,9,1,9,22.1,33.7,1,1,0.718999999999937
18,10,1,1,25.9,19.1,1,0,0.724000000000046
18,11,1,2,23.3,18.6,1,0,0.955000000000041
18,12,0,2,21.9,35.2,0,1,0.854999999999905
18,13,0,2,23.1,25.4,0,0,0.739000000000033
18,14,0,6,25.8,34,0,0,1.52099999999996
18,15,1,4,23.3,28.6,0,0,0.615000000000009
18,16,1,1,26.1,27.7,0,1,0.918999999999983
18,17,1,6,23.4,26.4,0,0,0.397000000000048
18,18,1,4,28.6,31.5,1,0,1.08699999999999
18,1,0,2,29.4,32,1,0,0.513000000000147
18,2,0,4,23,28,0,0,0.618999999999915
18,3,1,12,25.2,43.8,0,1,0.538999999999987
18,4,0,2,29.7,44.6,0,1,0.743000000000166
18,5,0,4,29.1,45,1,0,0.713999999999942
18,6,0,4,27.9,33.3,0,0,1.904
18,7,1,2,22.6,25,0,0,0.843000000000075
18,8,1,4,20.4,24.9,0,0,0.59699999999998
18,9,1,4,26.1,32.3,1,0,0.766000000000076
18,10,0,6,23.6,21.8,1,0,0.907999999999902
18,11,1,9,25,39.9,1,1,0.807000000000016
18,12,0,12,26.8,97,1,1,0.560000000000173
18,13,1,9,26.7,68.1,0,1,0.701000000000022
18,14,0,2,24.6,22.1,1,0,0.894000000000005
18,15,0,12,24.5,59.7,1,1,0.56899999999996
18,16,0,1,27,33.7,0,0,0.631999999999834
18,17,1,12,21.8,23.9,1,0,0.709999999999809
18,18,0,9,24.3,37,1,0,1.02700000000004
18,19,1,9,24.2,38.1,1,1,0.652000000000044
18,20,0,4,23.6,29.2,0,1,1.08400000000006
18,21,1,6,25.6,53.9,0,1,1.13199999999983
18,22,1,12,23.9,39.1,1,0,0.891000000000076
18,23,1,9,20.5,47.2,1,1,0.641000000000076
18,24,1,1,20.6,21.8,0,0,0.508000000000038
18,25,1,9,29.4,45.1,0,1,0.557000000000016
18,26,0,4,22.4,27.4,0,0,0.659000000000106
18,27,1,2,24.3,27.1,0,1,0.673000000000002
18,28,0,12,23,57.3,0,1,0.659000000000106
18,29,0,1,26.1,33.9,0,0,1.08300000000008
18,30,0,9,21.2,21.9,0,0,0.690000000000055
18,31,0,12,22.5,36.9,0,0,1.48300000000017
18,32,1,6,25.9,26.6,0,0,0.719000000000051
18,33,1,12,20.6,35.4,0,1,0.660000000000082
18,34,0,6,24.5,45.9,1,1,0.957999999999856
18,35,1,4,28.2,34.6,1,0,0.516999999999825
18,36,0,2,20.4,28.9,1,0,0.589000000000169
18,37,0,12,24.2,40.7,1,1,0.945000000000164
18,38,0,4,21.8,26.5,1,1,1.25599999999986
18,39,0,1,27.9,29.4,1,0,0.651000000000067
18,40,1,4,21.1,25.5,1,0,0.738000000000056
18,41,1,9,27.3,68,1,1,0.891000000000076
18,42,1,4,20,18.7,1,0,0.634999999999991
18,43,1,12,26.5,31.9,1,0,1.59400000000005
18,44,1,2,24.8,36,1,1,0.687000000000126
18,45,0,9,23.4,27.5,0,1,1.41399999999999
18,46,1,9,21.4,31.2,1,1,0.831000000000131
18,47,1,1,22.2,23.3,0,0,0.728000000000065
18,48,1,4,29.1,34.8,1,0,0.972999999999956
18,49,1,4,24.7,42.4,0,1,0.955000000000155
18,50,0,6,21.9,21.9,1,0,0.588999999999942
18,51,0,4,26.6,25.5,1,0,0.532999999999902
18,52,1,4,20.1,24.4,0,0,0.751999999999953
18,53,0,9,26.7,39.8,0,0,0.77800000000002
18,54,1,1,25.5,22.4,0,0,0.68100000000004
18,55,0,1,25.4,26.9,1,0,0.633000000000038
18,56,0,2,21.5,20,0,0,0.516000000000076
18,57,0,1,29.6,31.4,0,0,0.711999999999989
18,58,1,12,20.5,35.3,1,0,0.911000000000058
18,59,0,4,20.3,25.5,0,0,0.525000000000091
18,60,0,4,25.6,32.4,1,1,0.610000000000127
18,61,1,2,23.6,26.6,1,0,0.88799999999992
19,1,0,6,20.9,21.3,1,0,0.649999999999977
19,2,0,1,22.5,23.5,0,-1,-10.275
19,3,0,12,29.9,37.3,0,0,0.613
19,4,1,12,28.2,52.3,0,0,0.617999999999995
19,5,0,6,27.3,30.9,0,0,0.466000000000008
19,6,0,6,23.3,41.5,0,0,0.601999999999975
19,7,1,4,21,46.9,0,0,0.375
19,8,0,4,28.5,133.2,1,1,0.569999999999993
19,9,1,4,20.9,15.7,1,0,0.706000000000017
19,10,0,9,21.8,34.4,0,0,0.481999999999971
19,11,0,1,21.9,23.5,0,0,0.537999999999954
19,12,1,12,24.6,209.5,1,1,1.072
19,13,1,12,22,24.4,0,0,0.64100000000002
19,14,1,1,27.8,30.1,0,0,0.663999999999987
19,15,1,4,23.1,31,0,0,0.664999999999964
19,16,0,1,25.9,22.3,1,0,0.635999999999967
19,17,1,4,25.3,35.1,1,0,0.83299999999997
19,18,0,9,25.2,48.4,0,0,1.16599999999994
19,19,0,4,22.4,32.3,0,0,0.673000000000002
19,1,0,12,24.7,37,0,0,0.908000000000015
19,2,1,1,29,30.7,0,0,0.699000000000069
19,3,1,4,22.5,22.8,1,0,0.531000000000176
19,4,0,1,22.8,24.3,1,0,0.853000000000065
19,5,0,6,22.2,27.3,1,0,0.625999999999976
19,6,1,2,29.6,31.4,0,0,0.952999999999975
19,7,0,6,29.9,44.3,0,0,0.718000000000075
19,8,1,9,20.1,40.5,0,0,0.516999999999825
19,9,1,4,25,35.8,1,0,0.513999999999896
20,1,1,9,29.7,32.5,1,0,1.23900000000003
20,2,0,4,28.1,33.1,0,0,1.69
20,3,0,4,24.9,25.9,0,0,1.35699999999997
20,4,1,9,23.1,30.4,0,-1,-8.572
20,5,1,12,21.8,31.4,1,1,0.990000000000009
20,6,1,12,27.3,65.1,0,1,0.803999999999974
20,7,1,12,26.9,56.1,1,1,0.749000000000024
20,8,0,6,25.3,31.1,1,0,0.672000000000025
20,9,0,1,29.2,26,0,0,1.25600000000003
20,10,1,12,22.7,34.8,0,1,1.16699999999997
20,11,0,4,23,22.7,1,0,1.149
20,12,1,6,23,32.9,1,1,0.80800000000005
20,13,0,12,23.5,29.8,0,1,1.505
20,14,0,6,27,39.4,1,1,0.807000000000016
20,15,0,12,21.3,35.1,0,1,0.887999999999977
20,16,1,12,26.4,41.5,0,1,1.404
20,17,1,12,27,41,0,1,1.00200000000001
20,18,1,2,20.1,21.2,1,-1,-10.904
20,19,1,2,22.2,21.5,0,0,0.614000000000033
20,20,0,2,20.3,19.9,0,0,0.798000000000002
20,21,0,4,22.8,25.3,0,0,0.821000000000026
20,22,1,12,21.2,26.2,1,0,0.936000000000035
20,23,0,4,22.8,27.4,1,0,1.11099999999999
20,24,0,2,25.9,25.4,1,0,1.19000000000005
20,25,1,4,20.3,25,1,0,1.91399999999999
20,26,1,12,20.3,32.9,1,1,0.793999999999983
20,27,1,1,26.3,24.9,1,0,1.04300000000001
20,28,1,4,26.1,29.6,1,1,0.625
20,29,1,4,23,23.8,1,1,0.663999999999987
20,30,1,2,23.6,25,1,1,0.698999999999955
20,31,1,1,25.6,26.4,0,1,0.519999999999982
20,32,1,2,24.1,25.5,0,1,0.770999999999958
20,33,0,12,21.2,28.3,1,0,0.439000000000078
20,34,0,2,29.8,31.6,1,1,0.65300000000002
20,35,1,1,29.2,30.1,0,0,1.03099999999995
20,36,1,4,28.5,31.9,1,1,0.704999999999927
20,37,0,6,20.2,21.1,1,0,1.72399999999993
20,38,1,4,20.9,26.2,0,1,1.13400000000001
20,39,1,12,21,28.3,1,1,1.46799999999996
20,40,1,1,25.9,29.3,0,1,0.915000000000077
20,1,1,9,21.9,30.2,1,1,1.92900000000009
20,2,1,12,21,29,0,1,1.39999999999986
20,3,0,9,22.8,23.7,0,0,0.884999999999991
20,4,0,4,26,25.5,1,0,0.73700000000008
20,5,1,12,22.1,32.3,0,1,0.805000000000064
20,6,0,4,25.6,28.1,0,0,0.93100000000004
20,7,0,4,20.7,21.7,0,-1,-8.99800000000005
20,8,0,9,26.6,35.8,0,1,1.20000000000005
21,1,0,12,22.4,33.6,1,0,0.720000000000255
21,2,0,9,27.9,41.7,1,0,1.16400000000021
21,3,0,2,29.9,28.3,0,0,0.947999999999865
21,4,1,6,29.2,41.2,0,0,0.655999999999949
21,5,0,6,20.9,36.8,1,1,1.14300000000003
21,6,0,2,26.6,30.9,0,0,1.13799999999992
21,7,0,4,23.5,31.8,1,0,0.820000000000164
21,8,0,2,24.8,29.6,0,0,0.727999999999611
21,9,1,1,24.9,27.5,0,1,1.36799999999994
21,10,0,9,23.8,44.4,1,1,0.692000000000007
21,11,1,9,22.9,40.2,0,1,1.20800000000008
21,12,0,1,26.3,23.3,1,0,0.846999999999753
21,13,0,2,23.6,27.2,1,0,0.755999999999858
21,14,0,2,23.3,31.7,1,0,1.0329999999999
21,15,0,9,22,35.4,1,-1,-8.88999999999987
21,16,0,6,29.6,28.8,1,0,0.697999999999865
21,17,0,4,24.3,23.5,0,0,0.722000000000207
21,18,1,2,24.2,28,0,0,0.798999999999978
21,19,0,6,24.3,50.6,1,1,0.533000000000357
21,20,0,12,26.2,51.3,1,1,1.06400000000031
21,21,1,12,21.7,40.2,0,1,1.19700000000012
21,22,0,1,21,22.4,1,0,1.01400000000012
21,23,0,6,28.2,29.7,0,0,0.634999999999764
21,24,0,1,28.3,30.3,0,0,0.590000000000146
21,25,1,12,21.9,40.2,1,1,1.2510000000002
21,26,0,6,27.3,37.8,1,-1,-8.68299999999999
21,27,0,4,22.5,22.3,1,0,0.878000000000156
21,28,1,2,23.5,26.7,1,0,0.619000000000142
21,29,1,1,29.7,39.1,0,1,0.606000000000222
21,30,1,12,27.4,50,0,1,0.652999999999793
21,31,1,12,29.1,51.1,0,1,0.704999999999927
21,32,0,12,22.3,37.7,1,0,0.989999999999782
21,33,1,12,25.3,62.5,1,1,0.900000000000091
21,34,0,1,21.9,23.3,1,0,1.01400000000012
21,35,1,12,28.8,68.1,1,1,0.672000000000025
21,36,1,1,20.5,21.8,1,0,0.701000000000022
21,37,1,12,28.4,64.9,1,1,0.833999999999833
21,38,0,9,27.2,42.5,0,0,0.875
21,39,1,12,29.2,43.6,1,0,0.856999999999971
21,1,0,1,21.4,22.4,1,0,0.663000000000011
21,2,1,4,22.4,36,1,1,0.961999999999989
21,3,1,6,20.1,22,1,0,0.564000000000306
21,4,0,12,29.8,59.9,0,1,0.795999999999822
21,5,1,12,26,41.3,0,0,0.408999999999651
21,6,0,12,22.6,38.6,1,0,0.625
21,7,1,4,21.5,25.3,1,0,0.634000000000015
22,1,1,4,24.8,37.4,1,0,1.09
22,2,0,12,29,45.1,0,0,0.782999999999987
22,3,1,6,27.7,36.9,0,0,0.442000000000007
22,4,1,1,20.2,14.8,1,0,0.662999999999982
22,5,1,6,28.2,39.2,0,0,0.668999999999983
22,6,1,1,26.5,28.6,1,0,0.687999999999988
22,7,1,6,29.7,44,0,1,0.579999999999984
22,8,0,9,21.4,33.4,1,1,0.629999999999995
22,9,0,4,20.1,24.5,0,0,1.017
22,10,1,4,29.9,36.9,1,0,0.721000000000004
22,11,1,12,28.8,29.2,1,0,0.805000000000007
22,12,0,9,21.2,21.7,1,0,0.65300000000002
22,13,0,6,28.7,40.5,0,1,1.77200000000005
22,14,1,1,20.2,32.2,1,1,0.901999999999987
22,15,0,9,26.9,42.1,0,1,0.64100000000002
22,16,0,4,24.2,46.4,1,1,0.520000000000039
22,17,0,12,23,27.3,0,0,0.88900000000001
22,18,1,6,27.2,28.8,1,0,0.79000000000002
22,19,1,4,25.6,41.3,0,1,0.729000000000042
22,20,0,6,21.7,37.8,1,1,1.89800000000002
22,21,1,1,21.5,20,1,0,1.34300000000002
22,22,0,4,27.5,40.2,1,1,1.315
22,23,1,12,22,46.1,0,1,0.697999999999979
22,24,0,6,21.1,28.7,0,0,0.543000000000006
22,1,1,4,23.7,27.8,1,0,0.711000000000013
22,2,1,2,21.2,19.3,0,0,0.600999999999999
22,3,0,1,26.7,28.3,0,0,0.925999999999931
22,4,0,2,20.7,23.4,0,0,0.932999999999993
22,5,0,4,24.1,31.3,1,0,0.461999999999989
22,6,1,4,21.4,28.7,1,0,0.66800000000012
22,7,0,9,24.5,52.3,1,1,0.68100000000004
22,8,1,4,27.2,40.6,0,1,0.547000000000025
22,9,0,6,27.7,43.2,1,1,1.37799999999993
22,10,1,2,27.3,33.9,0,0,1.12100000000009
22,11,1,9,25.2,31.2,1,0,0.538000000000011
22,12,1,1,23.3,21.7,0,0,0.587999999999965
22,13,1,12,29.4,74.1,0,1,0.764999999999873
22,14,1,6,25.8,38.6,0,1,0.878000000000156
22,15,0,1,30,32.2,0,0,0.855999999999995
22,16,1,6,24.4,29.9,0,0,0.471000000000004
22,17,0,9,23.8,48,1,1,0.510999999999967
22,18,0,12,27.4,52.7,0,-1,-11.4080000000001
22,19,1,9,26,50.8,0,1,0.444999999999936
22,20,0,9,29.8,50.3,0,1,0.578999999999951
22,21,1,1,28.1,27.3,0,0,0.621000000000095
22,22,0,1,28.3,28,0,1,0.633000000000038
22,23,0,4,22.8,24.2,0,0,0.807000000000016
22,24,0,12,23.4,41.1,1,1,0.607999999999947
22,25,0,1,21.1,19.5,0,0,0.751999999999953
22,26,1,2,22.7,29.2,0,0,0.876000000000204
22,27,0,1,21.3,27.5,0,0,0.659999999999854
22,28,0,1,27.2,39.8,1,0,0.454999999999927
22,29,0,1,20.9,38.4,1,1,0.627999999999929
22,30,0,12,29.5,46.6,1,1,0.466999999999871
22,31,1,12,29.2,44.5,1,1,1.20000000000005
22,32,1,6,26.5,65.5,0,1,0.601000000000113
22,33,0,4,23.9,27.8,0,0,0.711999999999989
22,34,1,9,29.9,81,1,1,0.907999999999902
22,35,1,4,20.9,24.4,0,0,0.555000000000064
22,36,0,1,23.3,24.4,1,0,0.902000000000044
22,37,1,4,25.6,30.2,1,1,1.32799999999997
22,38,1,6,25.7,22.9,1,0,0.597999999999956
22,39,0,4,24.5,28.8,1,0,0.490999999999985
22,40,1,6,26.6,24.8,1,0,0.666999999999916
22,41,0,1,21.9,18,0,0,1.11400000000003
22,42,1,6,25.4,25,0,0,0.724999999999909
22,43,1,12,24.9,29.4,1,0,0.573000000000093
22,44,0,4,26,31.5,1,0,0.725999999999885
22,45,1,4,24.1,23.7,1,0,0.542999999999893
22,46,0,4,22,22,0,0,1.00900000000001
22,47,0,1,28.5,25.5,0,0,0.883000000000038
22,48,0,9,21.3,32.4,1,1,0.562999999999874
22,49,1,9,23.7,28.3,1,0,1.00999999999999
22,50,0,6,25.4,42.8,0,0,0.711000000000013
22,51,0,2,23.5,26.4,0,0,0.718999999999824
22,52,1,4,24.7,39.6,0,1,1.10300000000007
22,53,0,12,26.9,65.2,1,0,0.524999999999864
22,54,0,12,28.4,50.5,0,1,0.643000000000029
22,55,0,12,26.8,46.5,0,1,1.59799999999996
22,56,0,1,24.1,21.1,1,0,0.597999999999956
22,57,1,4,22.3,22.4,0,0,1.56099999999992
22,58,1,4,26,41.4,0,0,0.596000000000004
22,59,0,9,22.8,27,0,0,0.821999999999889
22,60,0,2,26.8,38.7,0,1,0.587999999999965
22,61,0,2,23.8,22.3,1,0,1.625
22,62,1,4,22.8,28.8,1,0,0.735999999999876
22,63,1,12,27.4,70.2,0,1,1.05700000000002
23,1,0,9,24.2,33.4,0,0,1.30799999999999
23,2,1,6,21,22.2,0,0,1.43299999999999
23,3,1,4,25.1,37.6,0,1,1.09199999999998
23,4,1,4,23.1,28.5,0,0,1.16999999999996
23,5,0,6,20.7,25.6,0,0,1.03100000000006
23,6,1,12,23.5,43.6,1,-1,-8.90499999999997
23,7,1,4,23.3,33,0,0,0.951999999999998
23,8,1,9,25.7,60.6,1,0,1.38200000000006
23,9,1,6,27.7,87.4,0,1,0.885999999999967
23,10,0,12,26.1,48.6,0,0,0.927000000000021
23,11,0,4,25.4,34.1,0,0,1.09500000000003
23,12,1,2,21.6,34.4,0,0,1.47199999999998
23,13,0,1,21.1,46.7,0,1,0.876999999999953
23,14,1,6,21.9,81.9,0,1,1.15200000000004
23,15,1,12,27.2,52.1,1,0,1.01200000000006
23,16,1,2,22.4,26.4,1,0,1.17399999999998
23,17,1,4,27.7,27.6,0,0,0.97199999999998
23,18,1,9,26.6,49.6,0,0,1.11099999999999
23,19,0,4,27.9,52.8,1,0,0.871999999999957
23,20,0,12,23.1,48.1,0,0,1.25099999999998
23,21,0,1,27.4,30.2,1,0,1.07599999999991
23,22,0,12,25.4,34.3,1,0,0.801000000000045
23,23,1,2,22.8,27.7,1,0,0.618999999999915
23,24,0,12,25.2,57.3,0,0,1.09100000000001
23,25,0,9,29.4,58.6,0,0,1.56999999999994
23,1,0,6,22.1,27.8,0,0,0.719000000000051
23,2,0,1,23.1,24.4,0,0,1.01499999999987
23,3,0,4,24.3,30.4,0,0,0.789999999999964
23,4,0,1,20.1,21.6,1,0,1.1070000000002
23,5,0,4,27.2,43.6,1,0,0.770999999999958
23,6,0,1,26.3,28,1,0,0.860000000000127
23,7,0,12,25.7,45.7,0,0,1.75300000000016
23,8,1,6,25.9,26.2,1,0,0.830999999999904
23,9,0,6,20.9,47.7,1,1,1.875
23,10,1,9,22.2,29.8,0,0,0.953999999999951
23,11,0,1,21,20.2,0,0,0.666000000000167
23,12,0,4,24.9,30.6,0,0,0.615000000000009
23,13,0,9,20.7,38.6,1,0,0.783000000000129
24,1,1,1,27.8,36.2,1,1,1.55499999999938
24,2,1,9,25.8,29.9,0,0,1.26299999999992
24,3,1,1,24.6,28.8,1,0,1.03600000000006
24,4,1,1,23.9,25.1,0,0,1.36500000000069
24,5,0,9,23.9,65.9,0,1,1.19800000000032
24,6,1,1,24.7,36.5,0,1,0.88799999999992
24,7,0,4,21.4,26,1,0,0.569999999999709
24,8,0,9,25.1,56.5,0,-1,-11.3500000000004
24,9,1,4,29.1,36.3,1,0,0.821000000000822
24,10,1,9,24.4,30.7,1,0,1.70700000000033
24,11,0,6,20.2,29.4,0,0,1.05400000000009
24,12,1,6,21.8,33.1,1,0,1.39099999999962
24,13,0,9,23.3,43.3,0,0,1.25399999999991
24,14,1,1,21.8,24.1,0,0,1.14000000000033
24,15,1,12,22.4,51.2,0,0,1.5630000000001
24,1,0,1,24.7,25.8,1,0,0.755000000000109
24,2,1,12,25.5,40.8,1,0,0.960999999999331
24,3,1,12,28.7,49.9,1,0,1.15099999999984
24,4,0,6,23.8,28.6,0,0,1.43499999999949
24,5,0,6,22.8,33.3,1,0,0.677000000000589
24,6,1,9,22.2,39.6,1,0,1.65300000000025
24,7,0,4,26.3,40.3,1,0,1.52599999999984
24,8,1,9,28.6,51.8,0,-1,-8.40799999999945
24,9,1,9,22.3,28.6,1,0,1.11599999999999
24,10,0,9,22,59.3,0,0,0.876999999999498
24,11,1,9,26.1,45.3,1,0,0.789999999999964
24,12,1,1,25.7,28.1,1,0,0.98700000000008
24,13,0,6,24,37.6,0,0,1.17699999999968
24,14,0,9,25.9,33.7,0,0,1.0639999999994
24,15,1,1,29.9,33.1,0,0,0.806999999999789
24,16,1,2,28.7,29.2,0,0,1.32400000000052
24,17,0,6,23.5,32.6,1,0,1.57999999999993
25,1,1,4,28.8,43.4,1,0,1.05699999999979
25,2,1,4,23.1,27.6,0,0,0.725999999999658
25,3,0,2,28.3,31.5,0,0,0.78400000000056
25,4,1,6,25.3,83.8,1,1,1.14400000000023
25,5,1,9,24.4,37.4,1,0,0.719999999999345
25,6,0,12,20.6,37.4,1,0,0.759000000000015
25,7,0,9,27.6,47.7,1,0,0.875
25,8,1,1,21.9,30.2,0,1,0.853000000000065
25,9,0,6,22.3,29.1,1,0,0.755000000000109
25,10,0,9,26,50.2,1,0,1.06800000000021
25,11,0,4,28.9,42.1,1,0,0.867999999999483
25,1,0,2,23.4,32,1,0,1.66200000000026
25,2,1,12,23.6,36,1,0,1.35000000000036
25,3,1,9,25.5,37,1,0,1.25799999999981
25,4,1,12,25.3,23.6,1,0,1.38999999999942
25,5,0,1,24.3,44.9,0,1,1.05400000000009
25,6,0,4,22.9,20,1,0,0.954999999999927
25,7,0,9,27.9,43.6,1,0,1.37400000000071
25,8,0,2,28.9,33.1,1,0,1.10500000000047
25,9,1,9,26.7,32.1,0,0,1.07800000000043
25,10,0,6,28.7,59.2,0,1,1.33999999999924
25,11,0,4,20.1,26.8,0,0,1.38600000000042
25,12,1,9,24,43.3,1,0,1.30999999999949
25,13,0,4,26.5,32.1,0,0,1.65200000000004
25,14,0,4,20.1,25.4,0,0,1.28200000000015
26,1,0,9,23.3,43.4,1,0,1.10199999999998
26,2,0,9,29.2,43.6,1,0,0.52699999999993
26,3,0,2,25.7,20.8,0,0,1.553
26,4,0,1,25.6,21.1,0,0,1.16500000000008
26,5,1,9,21.9,36.7,0,-1,-8.76400000000001
26,6,0,6,21.5,46.4,0,1,1.14799999999991
26,7,0,4,23.3,25,1,0,1.52699999999982
26,8,1,12,29,57.9,0,0,1.82000000000016
26,9,0,2,21.5,25.8,1,0,0.93100000000004
26,10,1,9,20.1,38.8,1,0,0.742000000000189
26,1,0,2,27.5,37.7,0,0,1.03800000000001
26,2,0,4,22.6,26.8,0,0,0.922000000000025
26,3,0,4,24,72.8,0,1,1.72900000000004
26,4,1,12,20.4,32.2,0,0,0.846000000000004
26,5,1,2,20,41.1,0,0,1.44200000000001
26,6,0,9,22.3,681.8,1,1,0.902000000000044
26,7,0,4,23.8,16.5,0,0,0.903999999999996
26,8,1,4,23.8,28.8,1,0,0.699000000000069
26,9,1,1,28.7,30.4,1,0,0.856999999999971
26,10,1,4,26.1,19.4,1,0,1.0150000000001
26,11,0,9,22.9,34.8,1,0,0.738000000000056
26,12,0,9,29.6,46.5,1,0,0.770999999999958
26,13,1,6,29.6,96.1,0,1,1.26599999999985
26,14,0,12,27.7,138.9,1,1,0.809999999999945
26,15,1,4,25.7,33.4,1,0,0.908000000000129
26,16,1,9,20.4,63.3,1,0,0.752999999999929
26,17,1,4,25.1,79,0,0,0.939000000000078
26,18,0,9,27.5,43.5,0,0,1.40499999999997
26,19,0,12,21.3,38.6,0,0,0.753999999999905
26,20,1,6,23.2,18.4,0,0,1.00099999999998
26,21,1,2,25.1,29.2,0,0,0.791999999999916
26,22,1,2,28.9,33.7,0,0,0.831000000000131
26,23,0,4,20,26.8,0,0,1.29700000000003
26,24,1,6,28.6,136,1,1,1.26600000000008
26,25,0,1,29.7,22.5,1,0,1.06899999999996
26,26,0,6,25,86.9,1,1,1.48700000000008
26,27,1,12,20.7,26.2,0,0,0.644000000000005
26,28,1,1,25.6,40.3,1,1,0.669999999999845
26,29,1,2,24.6,29.7,0,0,0.871999999999844
26,30,1,12,23.9,53.4,0,0,0.794999999999845
26,31,1,12,25.4,58,0,0,0.695000000000164
27,1,0,4,29.7,34.9,0,1,0.754000000000133
27,2,1,6,21.7,21.5,0,0,0.826999999999998
27,3,1,4,23.6,26.8,0,0,0.87700000000018
27,4,1,12,26.9,51.9,0,1,0.840999999999894
27,5,1,12,26.1,38,1,0,1.18599999999992
27,6,0,2,28.8,27.9,0,0,0.701999999999998
27,7,1,2,20.8,22.6,1,1,0.854999999999791
27,8,1,6,20.4,27.9,0,1,0.625
27,1,0,2,22.7,20.5,0,0,1.43300000000022
27,2,0,4,24.8,34.8,0,1,0.783999999999878
27,3,0,4,20.4,21.3,1,0,1.32899999999995
27,4,1,2,24.5,28.8,1,1,0.916999999999916
27,5,0,9,29.1,39.4,0,1,1.01099999999997
27,6,1,1,24,24.7,0,0,1.11500000000001
27,7,0,6,24.4,29.2,0,0,0.553000000000111
27,8,0,4,28.7,35.3,1,1,0.472999999999956
28,1,1,2,23.1,25.2,0,0,1.06899999999996
28,2,0,4,29.9,36.4,1,1,1.97299999999996
28,3,0,9,27.9,29.1,0,0,1.36099999999988
28,4,1,12,26,39.3,0,-1,-10.5609999999999
28,5,0,12,22,33.3,1,0,1.19000000000005
28,6,0,1,24.9,31.3,0,1,1.33400000000006
28,7,0,6,27.5,42,1,1,0.913999999999987
28,8,0,2,23.6,25.9,1,0,1.0139999999999
28,9,0,12,26.4,42.6,0,1,1.14300000000003
28,10,0,12,26.3,41.3,1,1,1.404
28,11,1,9,25.7,35.4,1,0,1.10899999999992
28,12,1,4,28.8,30.6,0,0,1.202
28,1,0,6,22.2,27.9,0,0,1.10899999999992
28,2,0,2,20.3,22.6,1,0,1.40100000000007
28,3,1,12,28.9,38,0,-1,-10.521
28,4,1,2,21.5,24.3,0,1,0.789999999999964
28,5,1,1,21.8,29.9,1,1,0.90300000000002
28,6,0,9,27.3,53.5,1,1,0.913000000000011
28,7,1,6,29.4,38.9,1,1,1.31799999999998
28,8,0,2,25.4,23.3,0,0,1.29199999999992
28,9,0,6,28.3,36,1,0,1.43200000000002
28,10,0,4,20,24,0,0,1.27700000000004
28,11,0,12,20.8,29.1,1,0,1.32299999999987
28,12,1,4,27.7,33.9,0,1,1.18200000000002
29,1,0,12,26.4,39.6,1,1,0.956999999999994
29,2,1,4,26.3,29.7,1,0,1.38099999999997
29,3,1,12,28.4,41.1,1,1,0.687000000000012
29,4,1,1,29.4,25.2,0,0,0.830000000000041
29,5,0,9,24.8,32.2,0,1,0.765999999999963
29,6,0,6,26.1,37.7,1,1,0.772999999999911
29,7,0,1,20.5,21.1,0,0,0.751999999999953
29,8,1,9,26.1,33.1,0,1,0.874000000000024
29,9,1,1,22.5,26.6,1,0,1.51300000000003
29,10,1,6,29.2,56.5,0,1,0.961000000000013
29,11,1,1,28.1,40.4,0,1,0.651000000000067
29,12,1,9,23.4,29.2,1,-1,-9.28800000000001
29,13,1,1,23.1,23.8,1,0,0.791000000000054
29,14,1,9,29.3,28.4,1,0,0.489000000000033
29,15,0,1,26.5,27.3,0,0,0.788999999999987
29,16,1,1,22.9,29.7,0,1,0.749000000000024
29,17,1,2,28.7,30.3,1,0,0.937000000000012
29,18,1,12,24.8,33.2,0,1,1.56000000000006
29,19,0,9,29.2,36,0,1,0.690000000000055
29,20,0,6,29.1,40.8,0,1,0.735000000000014
29,21,0,12,28.7,36.6,1,1,0.91700000000003
29,22,0,4,21.2,23,1,0,0.846000000000004
29,23,1,6,29.4,33.3,1,1,1.21600000000001
29,24,0,12,29.3,31.5,0,0,0.986999999999966
29,25,1,4,28.1,30.5,0,0,0.563999999999965
29,26,0,2,24,28.6,1,1,1.07600000000002
29,27,1,2,28.6,29.8,0,0,0.675999999999931
29,28,0,6,23.1,29.6,1,1,1.125
29,29,1,6,23,28.9,1,1,0.09800000000007
29,30,0,1,21.7,22.2,1,0,1.31999999999994
29,31,0,9,24.4,26.6,0,0,1.47699999999986
29,32,0,2,26.7,27.9,1,0,0.716000000000122
29,33,0,2,26.8,28,0,0,0.902000000000044
29,34,0,1,24.4,23.2,0,0,0.563000000000102
29,1,1,12,27.5,32.2,0,1,1.60500000000002
29,2,0,4,23.9,27.4,0,1,0.765999999999849
29,3,0,4,26.1,53.8,1,1,0.72400000000016
29,4,0,9,20.1,17.9,0,0,1.23700000000008
29,5,0,9,27.7,34.7,0,1,0.651000000000067
29,6,0,1,29.7,30.4,1,0,0.807000000000016
29,7,1,12,29,38.2,1,1,1.98199999999997
29,8,0,4,21.2,23.2,1,0,0.592000000000098
29,9,0,2,23.3,24.6,1,0,0.538999999999987
29,10,0,9,29.4,36.8,1,1,0.478000000000065
29,11,0,4,21.7,18.4,1,0,0.621000000000095
29,12,0,6,26.6,30.5,1,0,0.913999999999987
29,13,0,12,23.8,31.4,0,1,0.551999999999907
29,14,0,1,29.7,30.5,0,0,0.585000000000036
29,15,1,4,21.6,31.8,1,1,0.726000000000113
29,16,0,2,23.7,24.8,1,0,0.94399999999996
29,17,1,4,26.3,24.1,0,0,0.711999999999989
29,18,0,12,26.1,28.2,0,0,1.19799999999987
29,19,0,2,20.5,24.6,0,1,1.721
29,20,1,4,23.3,25.5,0,0,0.426999999999907
29,21,1,12,29.6,34,0,1,0.642000000000053
29,22,1,12,25,26.2,1,0,0.711000000000013
29,23,0,6,29.6,40.2,1,1,0.688000000000102
29,24,1,1,27.4,31.9,0,1,0.919000000000096
29,25,1,1,24.7,28.1,1,0,1.02999999999997
29,26,1,9,29.2,43.7,0,1,0.712999999999965
29,27,0,6,27.1,36.3,1,1,0.630000000000109
29,28,0,2,26.9,32,1,1,0.621000000000095
29,29,1,1,26.5,30.3,1,1,0.740999999999985
29,30,1,4,20.9,20.5,1,0,0.909000000000106
29,31,0,4,25,27,1,0,0.687000000000126
29,32,0,2,28.7,27.4,1,0,0.538000000000011
29,33,1,2,22.4,21.5,1,0,0.507000000000062
29,34,0,6,20.3,25,0,1,0.757000000000062
29,35,0,2,29.5,28.6,0,0,1.24099999999999
29,36,0,12,26.6,30.6,1,-1,-9.68600000000015
29,37,1,9,20.9,22.9,0,0,0.635999999999967
29,38,1,1,20.3,20.7,0,0,0.510999999999967
29,39,0,9,23.1,29.5,1,1,0.655999999999949
30,1,0,4,24.1,28.3,0,0,0.963999999999999
30,2,1,6,24.8,32.9,0,1,0.489999999999952
30,3,0,12,24,55.2,1,1,0.705000000000041
30,4,1,4,27.2,40,1,1,1.13600000000002
30,5,1,2,29.4,32,1,0,1.101
30,6,0,4,24.3,33.2,0,1,1.80899999999997
30,7,1,9,22.8,32.2,1,0,1.03399999999999
30,8,0,6,20.6,26.8,0,0,0.879999999999995
30,9,0,12,20.6,37.3,1,1,0.670999999999935
30,1,1,1,24.4,25.5,0,0,0.604000000000042
30,2,0,6,28.3,50.2,1,1,0.551000000000045
30,3,1,12,23.3,37.3,1,0,0.900000000000091
30,4,1,6,29.4,40.7,1,1,1.029
30,5,1,12,24.2,50.8,0,1,0.563999999999965
30,6,0,12,26.3,51.1,0,1,0.745999999999981
30,7,1,9,29.9,39.6,0,0,0.498000000000047
31,1,0,12,26.9,31.4,0,0,0.759999999999991
31,2,1,6,24.3,37.4,1,1,0.828999999999951
31,3,0,12,26,38.5,1,1,0.72400000000016
31,4,1,12,22.4,26.9,1,0,0.83400000000006
31,5,1,6,28.4,33.8,0,0,0.809999999999945
31,6,0,12,23,33.3,0,0,1.06399999999985
31,7,1,1,23.8,22.4,1,0,0.785000000000082
31,8,0,2,25.2,29.9,0,1,1.596
31,9,1,12,21.5,29.8,0,0,0.805000000000064
31,1,1,1,28.3,29.6,0,0,0.673000000000002
31,2,1,1,21.7,22.9,1,0,1.24199999999996
31,3,1,2,20.7,23.2,0,0,0.439000000000078
31,4,1,9,29.3,37.7,1,1,0.729000000000042
31,5,0,9,21.3,29.5,1,1,0.944000000000187
31,6,1,4,28.1,65.8,1,1,0.779999999999973
31,7,1,4,28.8,23,0,0,0.625999999999976
31,8,1,2,20.2,21.7,0,0,0.847000000000207
31,9,0,2,22.1,37.3,0,1,0.603000000000065
31,10,1,12,29.2,70.9,1,1,0.639000000000124
31,11,0,4,24.7,28.2,1,0,0.711999999999989
31,12,1,12,25.8,37.5,1,1,0.689000000000078
31,13,1,6,27.6,47,1,1,0.654999999999973
31,14,1,4,26.2,24,1,0,0.642000000000053
31,15,1,12,24.9,27.6,0,0,0.74799999999982
31,16,1,9,20.9,34,1,1,0.625999999999749
31,17,1,1,29.6,30.6,1,0,0.721000000000004
31,18,0,2,21.5,22.9,0,0,1.20899999999983
31,19,1,1,24.5,22.2,1,0,0.826000000000022
31,20,0,2,23.7,22.5,1,0,0.710000000000036
31,21,0,12,24.4,34.3,0,0,0.742000000000189
31,22,1,4,25.6,33.6,0,0,1.04800000000023
31,23,1,4,22.3,31.8,0,1,0.925000000000182
31,24,1,4,27.4,38,1,1,0.997000000000298
31,25,1,4,21,24.4,1,0,0.599999999999909
31,26,0,9,22.9,27,1,0,0.934999999999945
31,27,1,9,29.7,41.4,1,1,0.671000000000276
31,28,1,1,23.3,27.4,1,1,0.97400000000016
31,29,1,4,25.9,26.9,0,0,0.621999999999844
31,30,0,9,26.2,35.8,0,1,0.954000000000178
31,31,0,1,26.9,25.5,0,0,0.771999999999935
31,32,0,12,24.3,40.3,0,1,0.894000000000233
31,33,1,4,25.3,26.6,1,0,0.93100000000004
32,1,1,1,29.7,31,0,0,0.878000000000611
32,2,0,2,28.3,25.7,0,0,1.45499999999993
32,3,1,6,28.6,46.4,0,1,0.720999999999549
32,4,0,2,29.4,32.5,0,0,1.21600000000035
32,5,0,2,25.9,32.7,0,-1,-8.71699999999964
32,6,0,12,23.8,49,0,1,0.819999999999709
32,7,0,1,25.2,26.7,1,0,1.55999999999949
32,8,1,2,24.7,27.8,1,1,1.2549999999992
32,9,0,9,29.9,43.9,0,1,0.744000000000597
32,10,1,9,25.3,28.4,0,0,0.865999999999985
32,11,0,6,22.9,28.7,0,1,0.810999999999694
32,12,1,12,22,39,1,1,1.11599999999999
32,13,0,12,20.8,25.3,0,1,1.17099999999937
32,14,1,6,23.8,27.8,0,-1,-9.75300000000061
32,15,1,4,30,33.4,1,0,0.719000000000051
32,16,1,6,23.1,22.2,1,0,1.50900000000001
32,17,1,4,20.6,23.1,1,1,0.988000000000284
32,18,0,12,29.5,39.3,1,1,1.23100000000068
32,19,0,12,20.1,26.1,0,1,0.796000000000276
32,20,0,6,20.3,27.6,1,1,0.983000000000175
32,21,0,9,23.3,27.9,1,0,0.894000000000233
32,22,1,12,21.8,27.9,0,1,1.01299999999992
32,23,1,2,28,33.4,1,1,0.9350000000004
32,24,0,2,24.6,25.7,1,0,1.15099999999984
32,25,0,12,22.2,28,1,1,0.829000000000633
32,26,1,9,22.5,26.6,0,1,1.08500000000004
32,27,1,2,26.2,24.7,1,0,1.12400000000071
32,28,1,6,28.5,29,1,0,0.908000000000357
32,29,0,9,29.2,34.3,1,1,0.820999999999913
32,1,1,12,20.8,31.2,0,1,0.808999999999287
32,2,0,1,28.2,29.1,1,0,1.25900000000001
32,3,1,4,20.6,23.6,1,-1,-9.66399999999976
32,4,1,1,26,34,0,1,0.601999999999862
32,5,1,6,23.5,24.1,1,0,1.17699999999968
32,6,0,6,23,27.9,0,1,1.0659999999998
32,7,1,9,26.6,38.9,0,1,0.591999999999643
32,8,1,6,26.5,28.8,1,0,0.742000000000189
32,9,1,4,24.3,28.9,0,0,1.4350000000004
32,10,1,2,28.6,26,0,0,0.801000000000386
32,11,1,1,26.3,27.2,1,0,0.774000000000342
32,12,0,9,27.9,36.6,1,1,0.79700000000048
32,13,1,12,23,38.4,1,1,0.943999999999505
32,14,1,4,23.2,23.3,1,0,1.05000000000018
32,15,0,2,24.6,28.6,0,1,1.3090000000002
32,16,0,9,21.9,30.3,0,1,1.53999999999996
32,17,1,2,29,32.6,1,1,1.42299999999977
32,18,1,2,24.8,26.2,1,0,1.60300000000007
32,19,1,9,21.8,26.2,0,1,0.784999999999854
32,20,0,6,28.5,32.8,0,1,0.997999999999593
32,21,1,6,28.5,32.5,0,0,1.25900000000001
32,22,1,2,29.3,28.7,1,0,0.847999999999956
32,23,1,12,22.7,29.5,0,1,0.926000000000386
32,24,0,1,29.5,30.2,1,0,1.25200000000041
32,25,0,1,22.9,23.4,1,0,0.787999999999556
32,26,1,9,22.1,28.9,1,1,0.913000000000466
33,1,0,9,24.4,33.7,1,0,1.41899999999987
33,2,1,1,24.8,26.2,1,0,1.09000000000015
33,3,1,2,22.6,25.5,0,-1,-9.84000000000015
33,4,0,9,28.4,61.6,0,1,0.845999999999549
33,5,0,12,27.5,47.7,1,0,0.783000000000357
33,6,0,1,20.4,21.9,0,0,0.837999999999738
33,7,1,4,26.5,35.1,0,0,0.91399999999976
33,8,1,12,24.6,44.2,1,0,1.19800000000032
33,9,0,2,27.3,32.6,1,1,1.75
33,1,0,9,29.2,40.3,1,1,0.985999999999876
33,2,1,2,20.7,18.5,1,0,1.11399999999958
33,3,1,9,29.5,45.6,1,1,0.975000000000364
33,4,1,12,23.5,31.8,0,0,1.14699999999993
33,5,0,6,27.7,33.7,1,0,1.36400000000049
33,6,0,4,28.4,33,0,0,0.911000000000058
33,7,0,2,20.5,22.3,1,0,0.898999999999432
33,8,1,6,25.3,27,1,0,1.57000000000062
33,9,0,1,20.4,21.4,1,-1,-9.35800000000017
33,10,1,12,27.1,41.9,0,1,0.932999999999993
33,11,0,12,24.2,36.2,0,-1,-9.0029999999997
33,12,0,4,24.1,28.1,0,-1,-19.9489999999996
33,13,0,1,25.6,24,0,0,0.757999999999811
33,14,1,9,24.6,37.8,0,1,0.806999999999789
34,1,1,12,23.7,49.5,1,0,1.01800000000003
34,2,0,1,26.4,19.7,0,0,1.09900000000016
34,3,0,6,27.9,38,1,0,0.954999999999927
34,4,0,6,24.4,35,1,0,0.961999999999989
34,5,0,6,23.9,35.9,1,0,1.19499999999994
34,6,1,1,21.3,27.5,0,0,1.31899999999996
34,7,0,6,26.7,37.5,1,0,1.20800000000008
34,8,1,6,22.6,32.8,0,0,0.998000000000047
34,9,1,6,28.5,29.2,0,0,1.12000000000012
34,10,0,4,22,30,1,0,0.90300000000002
34,11,1,9,21.8,30.6,1,0,1.38200000000006
34,12,1,4,22.6,31.9,0,0,0.999000000000024
34,13,0,12,28.1,51.7,1,0,0.846000000000004
34,1,0,12,20.4,30.6,1,0,1.27300000000014
34,2,0,12,21,26.3,0,0,1.04900000000043
34,3,1,6,20.9,34.9,1,0,0.911999999999807
34,4,1,6,22.4,31.4,1,0,1.57400000000007
34,5,0,9,21.6,24.8,0,0,1.31700000000001
34,6,1,6,27.7,61.3,1,0,1.48399999999992
34,7,1,2,24.9,64.6,0,0,1.57799999999997
34,8,1,9,20.8,31.6,0,0,1.06899999999996
34,9,0,6,25.7,1008.2,0,1,1.08799999999974
34,10,0,4,22.9,168.2,1,1,1.01300000000037
34,11,1,1,22.6,70.2,0,1,0.884000000000015
34,12,1,9,23.2,36.7,1,0,0.925999999999931
34,13,0,9,29.6,48.2,0,0,0.937999999999647
34,14,0,6,20.3,29.7,0,0,0.963000000000193
34,15,0,4,24.5,20.9,0,0,0.835000000000036
34,16,0,2,20.3,16.8,0,0,0.932000000000244
34,17,0,4,27,37.1,1,0,0.936000000000149
34,18,1,12,22.1,30.8,1,0,1.34700000000021
34,19,1,6,25.5,61.3,0,0,0.903000000000247
34,20,1,2,29.4,35,0,0,0.798999999999978
34,21,0,12,26,239.8,0,1,1.10400000000027
34,22,1,1,26.9,29.6,0,0,1.45299999999997
34,23,0,4,28.3,68.3,0,0,0.851999999999862
34,24,1,12,25.6,1310.3,1,1,0.97400000000016
34,25,0,6,27.5,126.8,0,0,1.77399999999989
34,26,1,2,26.9,31.6,1,0,0.97400000000016
34,27,0,6,29.5,24.4,0,0,0.864999999999782
34,28,1,9,27.2,49.3,1,0,0.941000000000258
34,29,1,4,21,29,0,0,1.14899999999989
34,30,0,4,21.4,84.9,1,0,0.796000000000276
34,31,0,12,27.7,57.1,0,0,0.744999999999891
34,32,1,9,20.3,-532.4,1,0,1.29300000000012
34,33,0,9,27.6,-180.2,0,0,0.795999999999822
34,34,1,6,29,19.5,0,0,0.704999999999927
34,35,1,2,23.9,422.1,1,1,0.744000000000142
34,36,0,1,20.6,134,1,1,0.573999999999614
34,37,0,2,27.5,243.4,1,1,0.788000000000011
34,38,0,12,28,23.6,1,0,1.23500000000013
34,39,0,12,28.9,25.3,1,0,0.980999999999767
34,40,0,4,25.2,277.6,0,1,1.13500000000022
34,41,1,9,29,54.1,1,0,0.893000000000029
34,42,0,4,26.1,20,0,0,0.949000000000069
34,43,0,4,22.8,18,1,0,1.02600000000029
34,44,0,12,25.6,57,0,0,1.24499999999989
34,45,0,1,29.7,32.9,0,0,1.08300000000008
34,46,0,2,26.1,84.7,1,1,0.842000000000098
34,47,0,6,27.4,44.9,0,0,0.722999999999956
34,48,0,2,20.4,24.8,0,0,1.01800000000003
34,49,0,1,25.6,18.5,0,0,0.800999999999931
35,1,1,9,23.9,33,0,1,0.733999999999924
35,2,0,12,27.6,38.1,1,1,0.767999999999574
35,3,0,12,21.6,23.6,1,1,0.735999999999876
35,4,0,9,27.9,22.5,0,0,0.619000000000142
35,5,0,2,28.6,30.4,1,1,0.704000000000178
35,6,1,4,29.7,33.2,1,1,0.677000000000135
35,7,0,4,21.8,24.2,1,1,0.533000000000357
35,8,1,4,25.8,22.1,1,0,0.532999999999902
35,9,1,9,25.4,24.8,1,0,0.766000000000076
35,10,1,1,30,30.7,0,1,0.615999999999985
35,11,0,6,21.9,29.3,1,1,0.594000000000051
35,12,0,6,22.9,28.8,1,1,0.471000000000004
35,13,0,12,21.2,26.1,1,1,0.509000000000015
35,14,1,12,25,30.1,0,1,0.541999999999916
35,1,1,9,21.8,30.1,1,1,0.606000000000222
35,2,0,2,25.5,27.2,0,1,0.553000000000338
35,3,1,12,23.7,31.8,0,1,0.523000000000138
35,4,1,4,29,31.9,0,1,0.769000000000233
35,5,1,1,22.7,25.9,1,1,0.669999999999618
35,6,1,2,28.6,29.8,1,1,0.722999999999956
35,7,0,4,26.4,30.4,0,1,0.594000000000051
35,8,1,12,24.4,31.2,0,1,0.593000000000302
36,1,0,9,22.3,41.6,0,1,0.643999999999778
36,2,0,1,21.7,22.6,0,0,0.724999999999909
36,3,1,2,29.7,28.1,1,0,0.667999999999665
36,4,0,1,21,22.1,0,0,0.817000000000007
36,5,1,2,20.3,25.5,1,1,0.688999999999851
36,6,0,12,29.6,56.3,0,1,0.664999999999964
36,7,1,2,23.2,25.6,1,0,0.873000000000047
36,8,0,6,21,30.2,0,0,0.88799999999992
36,9,1,6,27.4,37.6,0,0,0.641000000000076
36,10,0,1,22.5,22,0,0,0.915000000000418
36,11,0,4,24.7,31.7,1,0,0.77599999999984
36,1,1,9,23.1,43.1,0,1,0.940999999999804
36,2,1,12,23.2,34.1,0,0,0.701999999999771
36,3,0,2,24,26.5,0,0,0.632000000000062
36,4,1,12,23.7,32.7,1,0,0.942000000000007
36,5,0,1,22.7,26.7,0,1,0.925999999999931
36,6,0,1,26.1,27.8,1,0,0.879999999999654
36,7,1,4,27.9,33,1,0,0.696999999999662
36,8,0,9,27,41.6,0,1,1.27399999999989
36,9,1,1,26.1,27.6,1,0,0.691000000000258
36,10,0,4,25.3,31.3,1,0,0.643999999999778
36,11,1,12,22.3,39.4,0,0,0.764000000000124
36,12,1,4,25,29.2,0,0,0.658999999999651
37,1,0,12,22,33,0,0,1.29900000000004
37,2,1,6,21,37.9,0,1,0.748999999999967
37,3,1,4,26.5,32.5,0,1,1.16899999999998
37,4,1,4,27.4,32.5,1,1,1.16699999999997
37,5,1,4,25.9,25.3,0,0,1.315
37,6,1,9,27.6,45.9,0,1,0.708000000000027
37,7,0,6,29.8,37.2,0,1,0.552999999999997
37,8,0,2,22.8,24.5,0,0,1.40199999999999
37,9,1,1,24.3,22.4,1,0,0.888000000000034
37,10,0,9,27.2,32.6,1,0,1.13
37,11,0,1,20.2,21,0,0,1.17499999999995
37,12,1,2,22.6,24.5,1,-1,-8.76000000000005
37,13,0,12,21.6,29.3,0,0,1.78200000000004
37,1,1,12,20.3,23.7,1,0,1.11399999999992
37,2,0,1,24.8,25.9,1,-1,-10.808
37,3,1,12,21.8,27.3,0,1,0.678000000000111
37,4,1,9,22.2,28.5,1,0,0.843999999999824
37,5,1,4,22.5,26.4,0,0,0.748000000000047
37,6,0,9,24,22.1,1,0,0.675999999999931
37,7,0,2,29.8,32.8,1,1,0.653999999999996
37,8,1,9,23.5,32.6,0,1,0.630000000000109
37,9,1,12,25,36.4,1,1,0.902000000000044
37,10,0,4,27.4,50.2,1,1,0.550999999999931
37,11,0,12,21.2,48.1,1,1,0.572999999999865
37,12,1,2,27.1,28.9,0,0,1.03700000000003
37,13,0,4,28.1,31.9,0,0,0.92899999999986
37,14,0,4,22.8,35.9,0,1,0.752999999999929
37,15,0,9,25,44.2,1,1,0.6400000000001
37,16,1,2,24.5,26.2,0,0,0.676999999999907
37,17,1,2,21.4,19.5,1,0,0.794000000000096
37,18,0,9,28.3,45.2,1,1,0.625999999999976
37,19,0,6,28.4,34.1,1,1,0.649999999999864
37,20,1,2,20.4,21.7,1,1,1.779
37,21,0,12,25.3,34.3,1,1,0.551999999999907
37,22,1,4,26.2,29.1,0,0,0.574000000000069
37,23,0,1,29.6,30.5,0,0,0.767000000000053
37,24,1,12,27.5,44.7,1,1,0.509000000000015
37,25,1,9,29.2,36.5,1,0,0.595000000000027
37,26,0,4,29.2,32.7,1,0,0.483999999999924
37,27,1,2,25.6,27.2,0,0,0.557999999999993
37,28,1,12,27,37.2,1,1,0.705000000000155
37,29,0,9,29.1,36.8,0,1,0.810999999999922
37,30,1,2,20.3,21.4,0,0,0.496999999999844
37,31,0,1,26.2,26.9,0,0,0.532000000000153
37,32,1,4,27.7,35.3,0,1,0.519000000000005
37,33,1,6,21.2,22.2,0,0,0.567999999999984
37,34,0,6,29.8,34.9,0,1,0.892000000000053
37,35,1,12,20.4,27.1,1,1,0.728000000000065
37,36,0,6,26.2,30.3,1,1,0.617999999999938
37,37,0,1,24.2,22.7,0,0,0.559999999999945
38,1,0,12,25.2,52.6,0,0,1.178
38,2,1,9,27.4,25.8,0,0,1.11099999999999
38,3,1,6,21.7,29.6,1,-1,-9.81799999999998
38,4,1,12,27.8,47.3,0,1,0.913999999999987
38,5,0,9,24.8,34.8,0,0,1.12199999999996
38,6,0,9,20.6,30.1,0,0,1.71000000000004
38,7,1,9,26.2,96.9,0,1,0.733000000000061
38,8,1,12,28.8,48.3,1,0,1.06200000000001
38,9,1,2,22.8,25.8,0,0,0.97199999999998
38,10,1,6,25.9,36.8,0,0,1.75300000000004
38,11,0,6,25.2,37,1,1,1.24699999999996
38,12,0,2,25.3,28.7,1,0,0.983000000000061
38,13,0,12,29.4,53.1,0,1,1.05700000000002
38,14,0,4,23.3,20.2,1,0,1.298
38,15,0,2,24.5,27.7,1,0,0.922000000000025
38,16,1,9,25.4,27.6,0,0,1.09899999999993
38,17,0,1,22.1,31.8,0,1,0.962999999999965
38,18,0,12,26,47.5,0,1,1.03599999999994
38,19,1,1,27.2,29,0,0,1.06200000000001
38,20,0,12,24.4,43.2,0,0,1.56400000000008
38,21,1,6,23.4,46.6,0,1,1.34199999999998
38,22,0,4,22.7,23.8,1,0,0.989000000000033
38,23,1,12,21.1,30.8,1,0,1.31700000000001
38,24,1,12,23.2,35.4,0,0,0.958999999999946
38,1,0,1,25.2,26.3,0,0,0.773000000000138
38,2,0,4,23.6,28.5,1,0,1.423
38,3,1,12,27.6,68.6,1,1,1.06700000000001
38,4,0,12,26.6,45.9,0,0,1.66299999999978
38,5,0,6,21,30.1,1,1,1.18200000000002
38,6,1,2,30,39,0,0,0.538000000000011
38,7,0,1,25.4,26.8,0,0,1.41000000000008
38,8,1,9,24.1,35.8,0,1,1.05799999999999
38,9,1,9,20.7,88.9,1,1,1.96299999999997
38,10,0,2,22.7,24.9,0,0,0.801999999999907
38,11,1,4,22.8,18.3,0,0,0.955000000000155
38,12,1,6,25.5,22.7,0,0,0.797000000000025
38,13,1,4,26.7,23.6,0,0,0.614000000000033
38,14,0,2,21.7,24.1,0,0,1.02500000000009
38,15,1,12,22.6,37.7,1,0,0.720000000000027
38,16,0,9,21.3,33.3,0,0,1.0150000000001
38,17,0,12,27.2,36.6,0,0,0.802000000000135
38,18,1,1,28.2,26,0,0,0.781000000000176
38,19,0,2,29.6,29.8,1,0,1.1400000000001
38,20,1,2,21.4,24.6,0,0,1.01200000000017
38,21,1,12,24.3,61.3,1,1,0.922000000000025
38,22,0,12,25.9,41.3,1,0,1.125
38,23,0,9,27.4,46.9,1,1,0.718000000000075
39,1,1,4,24.8,23.9,0,0,0.793999999999983
39,2,0,9,23.2,32.1,1,1,1.02499999999998
39,3,1,6,20.2,24.1,0,0,1.202
39,4,0,12,25.2,36.8,0,1,0.927000000000021
39,5,0,1,22.8,23.6,1,0,0.774000000000001
39,6,0,12,22.1,39.9,0,1,0.941000000000031
39,7,1,12,25.2,41.8,0,1,0.637
39,8,1,4,20.3,23,0,0,0.823999999999955
39,1,0,2,23.1,25.2,0,0,0.774999999999977
39,2,1,4,25.3,30.8,1,1,1.11500000000001
39,3,1,4,26.8,31.4,0,1,0.972999999999956
39,4,0,4,27.9,24.7,1,1,1.29200000000003
39,5,0,6,23,87.8,1,1,1.17199999999991
39,6,0,6,27.8,21.1,0,0,1.21299999999997
39,7,1,2,23.7,25.5,0,0,0.796000000000049
39,8,1,12,21.6,18.9,1,0,0.876999999999953
39,9,1,4,24.2,51.9,1,1,1.01900000000001
39,10,1,9,23.3,58,1,1,1.07100000000003
39,11,1,12,26.8,67.1,0,1,0.903999999999996
39,12,0,9,28.7,37.6,0,0,1.11599999999999
39,13,0,4,21.2,19,1,0,0.919999999999959
39,14,0,9,21.9,41.7,0,1,1.06999999999994
39,15,0,4,27.9,40.8,0,1,1.08699999999999
39,16,1,6,24.5,30.1,1,1,0.935999999999922
39,17,1,12,26.4,29.6,0,0,0.999000000000024
39,18,0,9,21.4,23.4,0,0,1.35400000000004
39,19,0,12,25.2,36,1,1,1.24600000000009
39,20,1,1,27.3,28.2,1,1,1.5139999999999
39,21,0,1,28,25.2,1,0,0.587999999999965
39,22,1,12,23.6,32.5,0,1,0.787000000000035
39,23,1,2,25.3,26.8,1,1,0.829999999999927
39,24,0,4,25.3,28.1,1,1,0.948000000000093
39,25,1,4,25.4,24.6,1,1,1.01600000000008
39,26,0,6,20.2,23.3,1,1,0.769999999999982
39,27,1,2,21.5,19,1,0,0.841999999999871
39,28,0,6,26.4,30.2,0,1,0.735999999999876
39,29,0,9,26.6,32.1,1,1,1.25600000000009
39,30,0,6,20.8,23.5,0,1,0.748999999999796
39,31,1,2,26.3,23.7,1,0,0.835000000000036
39,32,0,2,27.1,32.9,1,1,0.622000000000071
39,33,1,4,29,36.3,0,1,0.798000000000002
39,34,1,9,20.9,24.6,1,1,0.805000000000064
39,35,0,9,24.1,32.4,0,1,0.825000000000045
39,36,0,6,29.9,37.4,0,1,0.723999999999933
39,37,1,6,21.7,21.7,1,0,1.03400000000011
40,1,0,2,26.9,29.3,0,0,0.934999999999945
40,2,1,4,20.3,24.7,1,0,0.784999999999968
40,3,0,9,25.9,56,1,1,1.22299999999996
40,4,1,6,20.4,34.6,1,0,0.647999999999911
40,5,1,12,22.3,39,1,0,0.778999999999996
40,6,1,1,29.3,24.7,1,0,1.37700000000007
40,7,0,2,27,31.6,0,0,1.29599999999994
40,8,1,4,24.7,43.4,1,1,0.95799999999997
40,9,0,12,24.9,71.2,0,1,0.890999999999963
40,10,0,1,26.3,26.5,0,0,0.854000000000042
40,11,1,1,28.2,33.4,0,1,0.926000000000045
40,12,0,6,22.3,36.9,1,1,1.005
40,13,0,12,27.7,49.5,0,1,1.02499999999998
40,14,0,9,25.6,40.1,0,1,0.908999999999992
40,15,0,4,24.7,43.4,0,1,0.780999999999949
40,16,1,2,22.4,24.9,1,0,0.897000000000048
40,17,0,4,20.3,25,1,0,1.65499999999997
40,18,0,2,21.9,24.7,1,0,0.673999999999978
40,19,0,9,20,43,1,1,0.709999999999923
40,20,0,9,22.5,28.9,0,0,1.03499999999997
40,21,0,9,26.6,52.6,1,1,0.762000000000057
40,22,0,4,28.1,35.7,0,-1,-11.1609999999999
40,23,1,9,29.8,47.7,0,0,1.18200000000002
40,24,0,9,29.5,42.2,1,0,0.723999999999933
40,25,1,2,29.1,33.6,0,0,0.850999999999999
40,26,1,4,24,31.7,0,1,0.893000000000029
40,27,0,6,23.4,30.3,0,0,0.880999999999972
40,1,1,9,23.3,32.1,0,0,0.8900000000001
40,2,0,4,29.7,47.8,1,1,0.789999999999964
40,3,1,6,26.4,35.3,0,0,1.4369999999999
40,4,0,4,20.8,22.6,1,0,0.944999999999936
40,5,1,6,20.4,33.3,1,1,1.67799999999988
40,6,1,6,28.7,44.7,0,1,1.52399999999989
40,7,0,4,26.9,33.9,0,1,1.35200000000009
40,8,1,6,24.1,32.4,1,0,0.561000000000149
41,1,0,6,22.9,23.3,0,0,1.364
41,2,1,9,23.2,27,1,-1,-9.56300000000002
41,3,0,9,27.9,38.7,0,0,1.155
41,4,0,12,23.8,40,1,1,0.795999999999992
41,5,0,6,27.1,28.9,0,0,0.900000000000006
41,6,0,4,30,35.8,1,0,1.53300000000002
41,7,0,1,27.6,32.8,1,1,0.936000000000007
41,8,0,12,22.7,42,1,1,0.817999999999984
41,1,0,2,28.4,30.9,0,0,1.13400000000001
41,2,0,9,28.8,59.8,0,1,1.245
41,3,1,1,28.6,26,0,0,1.01900000000001
41,4,0,6,21.6,28.6,1,-1,-8.91399999999999
41,5,1,12,24.8,40.5,0,1,1.52599999999995
41,6,0,12,25.9,47.4,1,1,1.005
41,7,0,1,22.3,25.8,1,0,1.99199999999996
41,8,1,6,25.1,46.5,0,1,0.618000000000052
41,9,1,2,26.8,28.8,1,0,0.841000000000008
41,10,0,1,26.6,27.7,0,0,0.927000000000021
41,11,1,12,28.3,41.9,1,1,1.13599999999997
41,12,1,12,22.3,31.3,1,1,1.40800000000002
41,13,0,2,28.2,23.7,0,1,0.895999999999958
41,14,1,12,21.6,29.6,0,0,1.64800000000002
41,15,1,6,25.3,30.4,1,0,1.03800000000001
41,16,1,6,29,22.7,0,0,1.04100000000005
41,17,1,6,27.9,66.6,0,1,1.125
41,18,0,4,22.1,25.2,0,0,0.822000000000003
41,19,1,2,22.8,17.7,1,0,0.908999999999992
41,20,0,4,26.1,21.9,1,0,0.918999999999983
41,21,0,4,28.5,32.7,1,0,1.10599999999999
41,22,1,12,25.9,37.6,1,1,1.15899999999999
41,23,1,12,20.6,48.7,0,1,0.909999999999968
41,24,0,9,29.7,57.6,0,1,1.14499999999998
41,25,1,9,20.7,26.8,1,0,1.18399999999997
41,26,0,4,29.8,27.2,1,0,0.889999999999986
41,27,0,9,21.3,28.1,0,1,1.54200000000003
41,28,1,9,29.6,30.5,1,0,0.460000000000036
41,29,0,9,23.6,30.8,1,-1,-11.4639999999999
41,30,1,12,28.8,32.2,1,1,0.809999999999945
41,31,0,1,21.6,17.8,1,0,0.514000000000124
41,32,0,4,28.8,32.4,1,0,0.755999999999858
41,33,0,6,28.1,33.5,0,0,1.50900000000001
41,34,0,9,22.4,22.5,0,0,1.08799999999997
41,35,0,12,28.3,56.1,0,1,0.849999999999909
41,36,0,9,20.9,21.7,0,0,0.59900000000016
41,37,0,6,22.1,33.7,0,-1,-11.3209999999999
41,38,1,1,24.2,25,1,0,0.646999999999935
41,39,0,9,27.2,35.5,0,1,1.12200000000007
41,40,0,9,28.8,30.2,1,0,0.731999999999971
41,41,0,12,21.8,30.3,0,1,0.627999999999929
41,42,0,9,20.4,26,0,1,1.57399999999984
41,43,1,9,26.9,42.8,0,1,0.663999999999987
41,44,0,2,29.5,37.3,1,1,0.626999999999953
41,45,0,4,29.2,32.5,0,0,1.25400000000013
41,46,1,12,28.1,37.8,1,0,1.59999999999991
41,47,1,4,28.7,27.7,0,0,0.690000000000055
41,48,1,2,23.4,21.7,0,0,1.12900000000013
41,49,1,6,28.5,39.9,0,1,0.629999999999882
41,50,1,6,27.2,32.2,1,0,1.46000000000004
41,51,1,2,21.1,25.7,0,0,1.68399999999997
41,52,0,9,24,26.2,1,0,0.773999999999887
41,53,1,9,26.3,34.1,0,-1,-9.15900000000011
41,54,1,9,22.6,24.9,1,0,1.26999999999998
41,55,1,4,29,32.9,1,0,0.475000000000136
41,56,1,2,25.9,27.7,0,0,0.759999999999991
41,57,0,4,24.3,24.2,0,0,0.932999999999993
41,58,1,6,23.3,28.3,1,1,1.07899999999995
41,59,0,4,29.4,29.4,1,0,0.695999999999913
41,60,1,6,20.3,24.5,1,1,1.31899999999996
41,61,0,9,27.1,35.3,0,0,1.05799999999999
42,1,1,9,20.6,38.4,0,0,0.740000000000009
42,2,0,6,21.2,28.3,1,0,0.850000000000136
42,3,1,12,21.2,102.6,0,1,1.04499999999985
42,4,1,6,26.5,64.6,0,0,0.993999999999915
42,5,0,6,27.5,36.4,1,0,1.06500000000005
42,6,0,1,25.8,27.4,1,0,1.15600000000018
42,7,0,4,29.6,37.2,1,0,1.29700000000003
42,8,0,2,23.7,27.1,1,0,0.84699999999998
42,9,0,2,22.9,18.6,1,0,0.84699999999998
42,10,1,12,28.7,56.4,0,0,0.912000000000035
42,11,1,4,22.2,30.6,0,0,0.779999999999973
42,12,0,12,29.6,49.9,1,0,0.916999999999916
42,13,0,6,20.1,32.8,1,0,0.874000000000024
42,1,1,4,29.8,28.7,1,0,0.817000000000007
42,2,1,6,20.2,30.8,0,0,1.48300000000017
42,3,0,2,29.1,32.8,1,0,0.914000000000215
42,4,1,1,21.2,18,0,0,1.18700000000013
42,5,1,6,25.8,51.8,0,1,0.900000000000091
42,6,0,2,22.7,31.7,0,1,1.24399999999969
42,7,0,6,25.5,38,0,0,1.47000000000025
42,8,1,1,26.5,29,1,0,1.09799999999996
42,9,1,4,28.3,39.7,0,-1,-8.83199999999988
42,10,0,6,22.1,35.3,1,1,0.882000000000062
42,11,0,1,20.1,21.9,0,0,0.758000000000266
42,12,0,4,21.4,29.1,1,0,0.679999999999836
42,13,0,1,29,31.8,0,0,1.00600000000031
43,1,0,4,25.5,38.4,1,0,0.577999999999975
43,2,1,6,22.6,29.1,0,0,0.957999999999629
43,3,1,1,21.2,15,0,0,0.55600000000004
43,4,1,2,28.1,57.4,1,1,0.788000000000011
43,5,0,2,26.9,30.2,0,0,1.03800000000001
43,6,0,6,22,30.6,0,0,1.01100000000042
43,7,0,6,28.9,42,0,1,0.880000000000109
43,8,0,9,25.2,38.4,0,0,0.843000000000302
43,9,0,2,22,38.3,0,0,0.959000000000287
43,10,0,1,25,16.7,0,0,0.588999999999942
43,11,1,1,21.2,14.7,0,0,0.591999999999643
43,12,0,4,26,32.4,1,0,1.03800000000001
43,13,0,12,28.2,49.6,1,0,0.863000000000284
43,14,0,6,22.4,32,1,0,1.21300000000019
43,15,1,6,25.6,24.8,0,0,0.723999999999705
43,16,0,6,21.7,22.5,0,0,1.13200000000006
43,17,1,6,27.9,42.3,1,1,0.842999999999847
43,18,0,12,23,88.8,1,1,0.728999999999814
43,19,0,4,29.7,30.2,1,0,0.471000000000004
43,20,1,9,25.7,44.5,1,1,1.32999999999993
43,21,1,9,24,40.2,0,1,0.714999999999691
43,22,1,6,25.8,36.8,0,0,0.636999999999716
43,23,0,2,20.1,28.3,0,0,0.740000000000236
43,24,0,9,28,98.3,1,1,0.480999999999767
43,25,1,1,26.1,28.1,0,0,0.940999999999804
43,26,0,1,29.1,24,1,0,0.561999999999898
43,27,0,6,29.5,31.6,1,0,0.639000000000124
43,28,1,2,28.1,32.8,1,0,1.13599999999997
43,29,0,2,20.8,33.1,1,0,0.905999999999949
43,30,0,1,29.8,32.3,1,0,0.623999999999796
43,31,1,12,27.4,34.2,1,1,1.75200000000041
43,32,0,6,27.3,38.9,0,0,1.27499999999964
43,33,1,1,23.8,25.6,0,0,0.694000000000415
43,34,1,6,20.8,19,0,0,0.513999999999214
43,35,0,9,24.8,26,0,0,0.952000000000226
43,36,0,9,20.6,84.7,0,1,0.902000000000044
43,37,1,4,25.8,58.7,1,1,0.731999999999971
43,38,1,4,27.8,37.1,0,0,0.559000000000196
43,39,0,2,24.8,21.9,0,0,0.733999999999469
43,40,0,12,25.1,33.7,1,0,0.787000000000262
43,41,0,9,23,41.9,0,1,1.54400000000078
43,42,1,12,20.1,27.3,1,0,0.935999999999694
43,43,1,12,24.7,96.9,0,0,0.576000000000022
43,44,1,4,27.4,37.7,1,0,0.789999999999964
43,45,1,4,20.6,28.6,0,0,0.485999999999876
43,46,1,6,28.5,76.1,0,1,0.926000000000386
43,47,0,2,22.6,38.1,1,1,0.551000000000386
43,48,1,1,24.5,27,0,0,0.671999999999571
43,49,0,1,24.9,22,1,0,0.653000000000247
43,50,1,6,21.9,53.7,1,0,0.956000000000131
43,51,0,6,20.4,33,1,0,0.546999999999571
43,1,1,4,26.2,25.2,1,0,0.740999999999985
43,2,1,1,24.4,22.3,0,0,0.536000000000058
43,3,0,6,20.3,22.8,0,0,1.07300000000032
43,4,1,6,23,32.6,0,1,1.92900000000009
43,5,0,6,22.1,27.5,0,0,0.822999999999411
43,6,1,4,21.4,25.8,1,0,0.701999999999316
43,7,0,4,21.9,27,1,0,0.572000000000116
43,8,0,12,28.4,49.7,1,1,0.920000000000073
43,9,1,6,22,29.5,0,0,0.699999999999818
44,1,1,6,21.6,35.6,0,1,0.934999999999945
44,2,0,12,24.5,36.3,1,0,1.34799999999996
44,3,1,6,22.9,25.5,1,0,1.029
44,4,1,12,24.5,34.9,1,0,1.43499999999995
44,5,0,1,22.8,22.5,1,0,1.25399999999991
44,6,0,6,26.9,34.3,1,1,1.07299999999987
44,7,0,4,27.1,29.4,1,0,1.30400000000009
44,8,1,4,24.2,27,0,0,1.44200000000001
44,1,1,2,25.9,28.2,1,0,1.11299999999983
44,2,0,9,21.1,31.1,0,1,1.48900000000003
44,3,0,12,20.5,30.5,1,1,1.04199999999992
44,4,1,1,26.2,27.1,0,0,1.71000000000004
44,5,0,2,27.7,29.7,1,0,0.990999999999985
44,6,1,1,21.9,31.4,1,-1,-9.93299999999999
44,7,1,9,24.8,51.3,0,1,1.00999999999976
44,8,0,1,27.8,28.8,0,1,1.63200000000006
44,9,1,6,20.6,19.7,1,0,1.94900000000007
44,10,0,6,28,34,1,1,1.87800000000016
44,11,1,12,29.1,40.1,0,1,0.822999999999865
44,12,1,12,24.4,42.6,1,1,1.48199999999997
44,13,0,1,22.4,26.8,0,1,1.25599999999986
44,14,1,12,23.9,31.5,1,0,1.62800000000016
44,15,1,6,23.9,28.2,0,0,0.827000000000226
44,16,1,9,22.1,28.4,0,0,0.773000000000138
44,17,0,9,23.2,30.3,0,0,1.49200000000019
44,18,0,1,24.7,29,0,1,1.22600000000011
44,19,0,12,28.9,36.6,0,0,1.5010000000002
45,1,0,9,21.9,30.2,0,0,0.896999999999935
45,2,0,12,27.5,45.4,0,0,1.0619999999999
45,3,1,9,21.6,26.9,1,0,1.15899999999988
45,4,0,4,28.7,36.7,1,0,1.17000000000007
45,5,1,9,21.7,37,1,-1,-8.76099999999997
45,6,1,9,24.2,41.3,0,0,1.38300000000004
45,7,1,9,25.2,39,0,0,0.826999999999998
45,8,1,4,21.2,31.5,1,0,0.831000000000131
45,9,0,12,29.6,51.2,1,0,0.938999999999851
45,10,0,1,24.4,29.8,0,0,0.827999999999975
45,11,0,4,24.2,51.9,1,1,0.715000000000146
45,12,0,4,28.4,39.3,1,0,0.958999999999833
45,13,1,4,20.9,29.4,1,0,0.826000000000022
45,14,0,12,26.4,88.7,0,1,0.836999999999989
45,15,0,9,29,57.5,1,0,0.882000000000062
45,1,1,1,20.8,21.7,0,0,1.81100000000015
45,2,0,6,28,29.2,0,0,1.79899999999998
45,3,1,12,24.4,32.2,0,0,1.21900000000005
45,4,1,4,22.5,27.8,0,0,0.817000000000007
45,5,0,4,29.9,34.1,1,0,0.786000000000058
45,6,1,1,29.7,29.8,0,0,0.825000000000273
45,7,0,1,23.3,25.1,1,0,1.29799999999977
45,8,0,2,24.8,29.1,1,0,1.29300000000012
45,9,0,2,26.3,31.4,1,-1,-9.63700000000017
45,10,0,2,27.7,33.1,0,0,0.8100000000004
46,1,1,9,20.2,37.6,1,0,1.28899999999976
46,2,0,1,24.2,25.6,1,0,0.989999999999782
46,3,1,9,22.1,34.4,1,0,1.02200000000039
46,4,0,4,24.6,51.6,1,1,0.798999999999978
46,5,0,9,27.9,47.5,0,0,1.7510000000002
46,6,1,6,21.3,43.1,0,0,0.960999999999785
46,7,1,4,24.9,81.7,1,1,0.956000000000131
46,8,0,9,26.9,134.3,0,1,0.582999999999629
46,9,0,1,21.8,38.1,0,0,0.652000000000044
46,10,0,4,27.3,33.5,0,0,0.909999999999854
46,11,1,1,25.4,74.7,1,1,0.717000000000098
46,12,0,2,20.1,59.7,0,1,0.762000000000171
46,13,0,9,23.1,163.5,1,1,0.697999999999865
46,14,0,1,26.3,54.2,0,1,1.17999999999984
46,15,1,12,25.4,26.5,0,0,1.17500000000018
46,16,0,12,29,53.9,1,0,0.638999999999669
46,17,1,9,27.8,95.9,1,1,0.875
46,18,0,12,20.5,27.4,0,0,0.880000000000109
46,19,1,6,23.7,36.7,0,0,0.666999999999916
46,20,0,6,22.1,28.4,0,0,0.713999999999942
46,21,0,6,23.9,47.6,1,0,0.750999999999749
46,22,1,9,21.9,41.1,1,0,1.14000000000033
46,23,1,1,28.4,31.4,1,0,0.878999999999905
46,24,1,4,27.2,38.8,0,0,0.871000000000095
46,25,1,9,20.2,30.3,0,0,1.35400000000027
46,1,1,12,29.4,61.4,0,0,0.898999999999887
46,2,0,6,25,33.6,0,0,1.40900000000011
46,3,1,2,23.7,27.1,1,-1,-9.52299999999968
46,4,0,1,23.7,25.4,0,0,1.80799999999999
46,5,0,6,21,30.5,0,0,0.896999999999935
46,6,0,4,20.7,28,1,0,0.873000000000047
46,7,1,9,23.2,34.8,1,0,0.760999999999967
46,8,0,4,26.3,41.6,1,0,1.36699999999973
46,9,1,2,26.9,22.9,0,-1,-8.56200000000035
46,10,1,4,27.5,37,0,0,0.628999999999905
46,11,0,12,22.2,46.5,0,0,1.46399999999994
46,12,0,2,22.3,26.9,1,0,0.689000000000306
46,13,1,12,26.2,59.6,1,0,1.30799999999999
46,14,0,12,29,68.1,0,-1,-9.61699999999973
46,15,0,2,24.3,33.8,0,0,0.594000000000051
46,16,0,2,29.9,25.6,1,0,0.531999999999698
46,17,0,1,23.8,26.3,1,0,1.24400000000014
46,18,0,12,22.4,33.4,1,0,0.663000000000011
46,19,1,4,28.9,33.9,1,0,0.871999999999844
46,20,0,4,29.7,43.4,0,0,0.773000000000138
47,1,0,4,24.8,29.1,1,0,0.992999999999938
47,2,0,4,23,22.6,0,0,0.661000000000058
47,3,1,4,20,29.9,0,0,1.23399999999992
47,4,1,6,22.7,30.8,1,0,1.34400000000005
47,5,0,1,24.7,26.5,0,0,1.19699999999966
47,6,0,2,29.2,50.8,1,1,0.871999999999844
47,7,0,4,26.1,34.7,0,0,1.16699999999992
47,8,1,12,20.4,31.3,1,1,0.891000000000076
47,9,1,9,27.8,24.7,0,0,0.936999999999898
47,10,1,2,26.7,30.1,1,0,1.53800000000001
47,11,1,12,26.8,134.7,1,1,1.58699999999999
47,12,0,2,28.6,24,1,0,1.35099999999966
47,13,1,12,24,85.4,0,1,1.85300000000007
47,14,1,6,27.5,39.7,1,0,1.61500000000024
47,15,0,9,24,42.4,1,0,1.87800000000016
47,16,1,4,27,45.8,1,1,1.29300000000012
47,17,1,2,20.8,25.2,1,0,1.36400000000003
47,18,0,9,27,47.7,0,1,1.50800000000027
47,19,0,1,29.2,31.6,0,0,1.38999999999987
47,20,1,12,20.4,67.8,1,1,0.791000000000167
47,21,0,1,21.8,20,0,0,1.18000000000029
47,22,0,1,22.3,21.2,0,0,1.14100000000008
47,23,1,12,20.5,35.5,0,0,0.909000000000106
47,24,0,12,29.6,65.9,0,0,1.74499999999989
47,1,0,1,20.9,27.2,1,1,1.00799999999981
47,2,1,6,27.5,41.8,0,0,1.23399999999992
47,3,0,12,26.4,88.8,0,-1,-10.6910000000003
47,4,1,9,27.8,42.5,1,0,1.2170000000001
47,5,1,2,23.3,37,1,1,1.346
47,6,0,12,22.8,32.1,1,0,1.34999999999991
47,7,0,9,20.8,36.3,0,-1,-9.57600000000002
47,8,0,4,25.7,41.5,0,0,1.24000000000024
47,9,0,12,27.8,49.9,1,0,1.2470000000003
47,10,0,1,29,31.4,1,0,0.657000000000153
47,11,1,6,26.1,39.1,1,1,1.25600000000031
47,12,1,2,21.7,44,1,1,0.809999999999945
47,13,0,9,28.5,30.3,1,0,1.38700000000017
47,14,1,1,21.3,23,0,0,1.60999999999967
47,15,0,2,28.9,33.5,1,0,1.20800000000008
47,16,0,4,25.3,33.8,0,1,1.37099999999964
47,17,0,2,22.6,26.1,1,0,0.980000000000018
47,18,1,12,21.4,41,0,0,0.824000000000069
47,19,1,9,20.3,35.8,0,0,0.924999999999727
47,20,1,2,22.1,26.2,0,1,1.3420000000001
47,21,0,9,22.1,39.5,1,0,1.46000000000004
47,22,1,2,23.7,35.6,0,1,1.42599999999993
47,23,1,12,29.8,63.4,0,0,1.27099999999973
47,24,0,2,24.6,29.6,0,1,0.957000000000335
47,25,0,2,22.8,32.7,1,1,1.21000000000004
47,26,1,6,21.3,41.5,1,0,1.22700000000032
47,27,0,2,28.8,34.6,0,1,1.2529999999997
47,28,0,12,29.3,44.1,1,0,1.20400000000018
47,29,1,4,20.4,23.4,1,0,1.13500000000022
48,1,1,1,26,27.2,0,0,1.04200000000037
48,2,0,2,24.5,34.9,1,1,1.34799999999996
48,3,0,12,23.1,49.1,0,1,1.47000000000025
48,4,1,6,26.8,30.1,0,0,1.0619999999999
48,5,1,9,24.8,41.6,0,1,0.940000000000055
48,6,1,4,23.9,26.4,0,0,1.17000000000007
48,7,1,1,23.7,26.3,1,0,1.46000000000004
48,8,0,1,22.7,23.8,0,0,1.13599999999997
48,9,1,12,20.4,26.4,1,0,1.23800000000028
48,10,1,4,22.3,27.2,0,0,1.19100000000026
48,11,0,9,25,38.6,0,1,1.17399999999998
48,12,0,12,24.4,49.5,0,1,0.996999999999844
48,13,1,12,21.7,35,1,0,1.09799999999996
48,14,1,1,26.2,30.2,0,1,1.19299999999976
48,1,0,6,29.4,29.9,0,0,1.95299999999997
48,2,1,6,25,31.6,0,0,0.823999999999614
48,3,1,1,25.1,26.6,0,0,0.80199999999968
48,4,0,1,21.2,22.6,1,0,1.02599999999984
48,5,1,9,26.3,43.3,0,1,0.871000000000095
48,6,0,9,24,47.9,1,1,1.00400000000036
48,7,0,9,22.9,29.1,0,0,0.893000000000029
48,8,0,9,28.8,39.2,0,0,0.954999999999927
48,9,0,4,22.2,30.1,0,1,0.815000000000055
49,1,0,6,28.2,28.7,0,0,1.19200000000001
49,2,1,1,25.4,31,0,1,1.35600000000022
49,3,0,4,28.5,33.5,0,0,1.56999999999971
49,4,0,6,25.1,33.8,1,1,1.07799999999997
49,5,1,2,27.8,30.4,1,0,0.909999999999854
49,6,1,1,27.3,32.1,1,1,0.751000000000204
49,7,0,1,23.4,24.6,0,0,0.810999999999694
49,8,0,2,25.3,28,1,0,0.685999999999694
49,9,1,9,20.2,33.2,1,0,0.790000000000418
49,10,1,4,23.3,29.7,1,1,1.36999999999989
49,11,0,1,20.8,22,1,0,0.876000000000204
49,12,1,4,29.4,36.5,0,-1,-11.0499999999997
49,13,1,4,24.2,30,1,1,1.74200000000019
49,14,0,6,28.5,37.7,1,1,0.917999999999665
49,15,0,1,28.5,24.1,1,0,0.7800000000002
49,16,0,6,29.2,37.8,1,1,0.554000000000087
49,17,0,9,28.8,40.2,0,0,0.807000000000244
49,18,1,1,20.2,21.2,1,0,0.785000000000309
49,19,0,9,25.1,28.4,0,0,0.994000000000142
49,20,1,12,23.1,37.1,0,1,0.702999999999975
49,21,0,9,20.4,28.9,0,1,0.81899999999996
49,22,0,2,22.4,24.4,0,0,1.0949999999998
49,23,1,1,20.5,18.2,0,0,1.32000000000016
49,24,0,2,27.8,35.8,0,1,1.17899999999963
49,25,0,12,22,40.9,1,1,1.1869999999999
49,26,1,2,22.8,27.8,0,0,1.19900000000007
49,27,0,6,29.4,37.1,0,0,1.09299999999985
49,28,0,4,28.3,33.6,0,1,1.77199999999993
49,29,0,12,29.7,45.2,0,1,1.24499999999989
49,30,0,6,23.5,29.2,0,1,1.88999999999987
49,31,1,12,27,30.9,1,0,1.18899999999985
49,32,0,2,28.9,31.2,1,1,1.46900000000005
49,33,0,6,27.9,34.3,0,1,0.634000000000015
49,34,0,4,29.5,33.8,0,0,0.58600000000024
49,35,0,6,29.5,45.4,1,0,1.13500000000022
49,36,1,6,26.2,32.5,1,0,0.670000000000073
49,37,0,2,27.5,29.8,1,0,0.675000000000182
49,38,1,9,28.3,39.1,1,0,1.41499999999996
49,39,0,1,23,19.1,1,0,0.53899999999976
49,40,1,9,22.5,45.5,0,1,1.83299999999963
49,41,0,1,27,28.2,0,0,0.731999999999971
49,42,1,12,24.9,38.2,1,0,0.836999999999989
49,43,1,2,28.4,31.1,1,0,1.77399999999989
49,44,1,9,22.3,25.3,0,-1,-9.15200000000004
49,45,0,12,24.8,39.1,1,0,0.599999999999909
49,46,1,4,20.6,31.9,1,1,0.868000000000393
49,47,1,6,22.6,37.4,1,1,1.44300000000021
49,48,1,1,21.1,19.2,1,0,0.751999999999953
49,49,1,9,22.8,40.9,1,1,0.560999999999694
49,1,0,6,26.1,32.8,0,0,1.79600000000028
49,2,1,6,28.2,37.5,0,-1,-8.13900000000012
49,3,0,2,21.7,19.8,1,0,0.719000000000051
49,4,0,12,29.3,64.2,1,1,0.615999999999985
49,5,1,2,21.1,26.7,0,1,1.9429999999993
49,6,1,6,24.8,36.8,1,1,0.679000000000087
49,7,1,2,24.6,25.4,0,0,1.7549999999992
49,8,1,9,23.3,32.4,0,-1,-8.1820000000007
49,9,1,9,20.2,28.1,1,0,0.730999999999767
49,10,0,2,22.1,24.6,1,0,0.520999999999731
50,1,1,4,28.6,33.6,1,0,1.46899999999999
50,2,1,4,24,29.3,1,0,1.41500000000002
50,3,0,4,26.3,42.7,0,-1,-9.51499999999999
50,4,0,2,20.8,19.6,0,0,1.14499999999998
50,5,0,2,23.3,26.5,1,-1,-8.78800000000001
50,6,0,12,20.4,36.4,0,-1,-18.736
50,7,0,9,26,41.4,0,0,1.35900000000001
50,8,1,12,25.7,40.9,0,0,1.65700000000001
50,9,1,6,28.9,39.1,1,0,1.80400000000003
50,10,0,2,24.8,29.1,1,-1,-9.12099999999998
50,11,1,4,20.9,29.9,1,-1,-20.068
50,12,1,6,29.2,44.1,1,0,0.898000000000025
50,1,0,9,21.3,29.4,1,0,1.02600000000007
50,2,0,6,20.4,36.9,0,-1,-8.90700000000004
50,3,1,4,21.3,21,0,0,0.983999999999924
50,4,0,9,22.9,34.7,0,0,1.36900000000003
50,5,1,6,28.2,40,1,-1,-8.55899999999997
50,6,0,9,20.8,33.7,0,-1,-20.489
50,7,0,12,20.4,29.8,1,0,1.28200000000004
50,8,1,1,23,22.5,1,0,1.47199999999998
50,9,0,2,26.9,31,0,0,1.49599999999998
50,10,1,4,24.3,32.7,1,0,1.72500000000002
50,11,1,4,29,43.4,1,-1,-9.19499999999994
50,12,0,1,22.8,26.6,1,1,1.25700000000006
51,1,1,4,26.5,25.5,0,0,1.00099999999998
51,2,0,12,23.3,44.2,0,0,1.608
51,3,1,12,24.5,42.8,0,0,0.875
51,4,0,2,27,31.2,1,0,0.800999999999988
51,5,0,2,20.8,29.3,0,-1,-9.13200000000001
51,6,0,2,21.7,21.7,1,0,0.853000000000009
51,7,0,2,21,27.9,1,0,0.668000000000006
51,8,1,2,28.2,54,1,1,1.31099999999998
51,9,1,6,26,64.8,1,1,1.28000000000003
51,10,0,12,27.9,53.3,1,0,0.461999999999989
51,11,1,6,24.6,51.5,1,-1,-9.471
51,12,1,2,23.9,28.2,0,0,1.43700000000001
51,13,1,2,24.2,35.5,0,0,0.728000000000009
51,14,1,9,20.4,20.9,0,0,1.10700000000003
51,15,0,6,25.6,26.1,0,0,1.44999999999999
51,16,1,2,23.4,39.7,0,1,1.39699999999999
51,17,0,9,22,39.8,0,0,1.25400000000002
51,18,0,2,28.3,34,1,0,1.57899999999995
51,19,1,9,25.3,36.8,1,0,1.15699999999998
51,20,1,1,23.1,22.4,0,0,0.800000000000011
52,1,0,2,27.2,29.6,0,0,0.890999999999622
52,2,0,12,27.9,66.7,1,0,0.786000000000058
52,3,1,12,23.4,154.4,0,1,0.882000000000062
52,4,0,1,28.6,30.4,0,0,1.06100000000015
52,5,0,9,20.7,21.1,1,0,0.737999999999829
52,6,1,6,27.1,27.7,1,0,0.66800000000012
52,7,1,12,23.8,45.3,1,0,0.835999999999785
52,8,0,9,29.4,53.7,1,0,0.664999999999964
52,9,1,9,27.3,67.1,0,0,0.645999999999731
52,10,1,4,28.5,38.3,1,1,1.70699999999988
52,11,0,6,25.1,99.7,0,0,1.62800000000016
52,12,0,6,23.1,16.5,1,0,0.690999999999804
52,13,1,4,22.5,28.4,0,0,0.715000000000146
52,14,0,12,29.3,52.5,0,0,0.691000000000258
52,15,1,4,26.3,34.2,0,0,0.885999999999967
52,16,0,4,28,21.8,0,0,0.539999999999964
52,17,1,12,21.7,434.1,0,0,0.769000000000233
